Time (s),Shift (nm)
0.0,0.0
0.1999999999999886,0.0003859999999999
0.3999999999999772,-0.0014909999999999
0.5999999999999659,0.0009700000000001
0.8000000000000114,0.002669
1.0,0.0055530000000001
1.1999999999999886,0.0050400000000001
1.3999999999999773,0.0035370000000001
1.599999999999966,0.001719
1.8000000000000114,0.001095
2.0,0.0012100000000001
2.1999999999999886,0.0034659999999999
2.3999999999999773,0.005964
2.599999999999966,0.005138
2.800000000000012,0.005821
3.0,0.004974
3.1999999999999886,0.005111
3.3999999999999773,0.0051179999999999
3.599999999999966,0.006807
3.8000000000000114,0.006348
4.0,0.0045440000000001
4.199999999999989,0.0028799999999999
4.399999999999977,0.0017679999999999
4.599999999999966,0.0004760000000001
4.800000000000011,0.0003049999999999
5.0,0.0019489999999999
5.199999999999989,0.002863
5.399999999999977,0.0038610000000001
5.599999999999966,0.004607
5.800000000000011,0.0038629999999999
6.0,0.0015260000000001
6.199999999999989,-0.0003339999999998
6.399999999999977,-0.0020819999999999
6.599999999999966,-0.002345
6.800000000000011,-0.0012459999999998
7.0,0.001824
7.199999999999989,0.003722
7.399999999999977,0.004437
7.599999999999966,0.0042569999999999
7.800000000000011,0.0044760000000001
8.0,0.004458
8.199999999999989,0.003686
8.399999999999977,0.0014180000000001
8.599999999999966,5.300000000008076e-05
8.800000000000011,-0.001927
9.0,-0.0043849999999998
9.199999999999989,-0.0043359999999998
9.399999999999975,-0.0016159999999998
9.599999999999966,0.0002269999999999
9.800000000000011,0.0009540000000001
10.0,0.002008
10.199999999999989,0.0013610000000001
10.399999999999975,-0.0004139999999999
10.599999999999966,-0.0022059999999999
10.800000000000011,-0.0019499999999998
11.0,-0.0009839999999998
11.199999999999989,0.0014389999999999
11.399999999999975,0.0022600000000001
11.599999999999966,0.001792
11.800000000000011,0.000318
12.0,0.000205
12.199999999999989,-0.0009239999999999
12.399999999999975,-0.0015009999999999
12.599999999999966,-0.0009529999999999
12.800000000000011,-0.0006209999999999
13.0,2.900000000005676e-05
13.199999999999989,0.002372
13.399999999999975,0.0051100000000001
13.599999999999966,0.0080740000000001
13.800000000000011,0.009549
14.0,0.007892
14.199999999999989,0.005225
14.399999999999975,0.0011719999999999
14.599999999999966,-0.0015939999999998
14.800000000000011,-0.0024579999999998
15.0,-0.0007409999999998
15.199999999999989,0.0004650000000001
15.399999999999975,0.004302
15.599999999999966,0.0064300000000001
15.800000000000011,0.0083760000000001
16.0,0.006572
16.19999999999999,0.0046429999999999
16.399999999999977,0.0033039999999999
16.599999999999966,0.0011499999999999
16.80000000000001,0.0002390000000001
17.0,-0.0001409999999999
17.19999999999999,-0.0022189999999999
17.399999999999977,-0.0038339999999998
17.599999999999966,-0.002685
17.80000000000001,-0.0032809999999998
18.0,-0.0024189999999999
18.19999999999999,0.001746
18.399999999999977,0.0053640000000001
18.59999999999997,0.0056450000000001
18.80000000000001,0.004267
19.0,0.001589
19.19999999999999,-0.0032419999999999
19.399999999999977,-0.0073389999999999
19.59999999999997,-0.006529
19.80000000000001,-0.002302
20.0,-0.0002069999999998
20.19999999999999,9.1999999999981e-05
20.399999999999977,-0.001851
20.59999999999997,-0.0056159999999998
20.80000000000001,-0.008718
21.0,-0.0089749999999999
21.19999999999999,-0.0069019999999999
21.399999999999977,-0.002016
21.59999999999997,0.001519
21.80000000000001,0.0023060000000001
22.0,0.0029320000000001
22.19999999999999,0.0024539999999999
22.399999999999977,0.0006060000000001
22.59999999999997,-0.0009349999999999
22.80000000000001,-0.0008539999999999
23.0,0.0001889999999999
23.19999999999999,0.001924
23.399999999999977,0.002148
23.59999999999997,0.000537
23.80000000000001,-0.0021439999999999
24.0,-0.0038819999999999
24.19999999999999,-0.0065809999999999
24.399999999999977,-0.0085969999999999
24.59999999999997,-0.0075269999999998
24.80000000000001,-0.0050399999999999
25.0,-0.0065479999999999
25.19999999999999,-0.0073179999999999
25.399999999999977,-0.0074609999999999
25.59999999999997,-0.006677
25.80000000000001,-0.0080249999999999
26.0,-0.0077699999999998
26.19999999999999,-0.0073019999999999
26.399999999999977,-0.0054639999999999
26.59999999999997,-0.0049509999999999
26.80000000000001,-0.0048899999999998
27.0,-0.0028399999999999
27.19999999999999,0.001873
27.399999999999977,0.003875
27.59999999999997,0.004431
27.80000000000001,0.0066190000000001
28.0,0.006366
28.19999999999999,0.0053510000000001
28.399999999999977,0.0057960000000001
28.59999999999997,0.0058470000000001
28.80000000000001,0.0030959999999999
29.0,0.000458
29.19999999999999,-0.0027349999999999
29.399999999999977,-0.0040879999999998
29.59999999999997,-0.0045979999999998
29.80000000000001,-0.000464
30.0,0.003489
30.19999999999999,0.004645
30.399999999999977,0.0011560000000001
30.59999999999997,-0.001209
30.80000000000001,-0.0035889999999998
31.0,-0.0048079999999999
31.19999999999999,-0.005619
31.399999999999977,-0.0034809999999998
31.59999999999997,-0.002348
31.80000000000001,-0.0017959999999999
32.0,0.0003710000000001
32.19999999999999,0.0029510000000001
32.39999999999998,0.005274
32.599999999999966,0.0072659999999999
32.80000000000001,0.0081999999999999
33.0,0.0078660000000001
33.19999999999999,0.007892
33.39999999999998,0.007606
33.599999999999966,0.0068989999999999
33.80000000000001,0.004863
34.0,0.003641
34.19999999999999,0.0035420000000001
34.39999999999998,0.003103
34.599999999999966,0.0027970000000001
34.80000000000001,0.0010769999999999
35.0,-0.0012079999999998
35.19999999999999,-0.0033929999999999
35.39999999999998,-0.0044759999999999
35.599999999999966,-0.00468
35.80000000000001,-0.0019749999999998
36.0,0.001891
36.19999999999999,0.0043820000000001
36.39999999999998,0.0053549999999999
36.599999999999966,0.0051810000000001
36.80000000000001,0.0062349999999999
37.0,0.006053
37.19999999999999,0.005678
37.39999999999998,0.0034860000000001
37.599999999999966,0.0001440000000001
37.80000000000001,-0.003878
38.0,-0.0066399999999999
38.19999999999999,-0.0068679999999998
38.39999999999998,-0.0058579999999999
38.599999999999966,-0.003295
38.80000000000001,-0.0021759999999999
39.0,-0.0011809999999998
39.19999999999999,-0.0018199999999999
39.39999999999998,-0.0024619999999999
39.599999999999966,-0.0026289999999999
39.80000000000001,-0.0027139999999998
40.0,-0.003789
40.19999999999999,-0.004777
40.39999999999998,-0.0041989999999998
40.599999999999966,-0.0033719999999999
40.80000000000001,-0.0031529999999999
41.0,-0.003738
41.19999999999999,-0.003546
41.39999999999998,-0.0040729999999999
41.599999999999966,-0.0047399999999999
41.80000000000001,-0.0022409999999999
42.0,0.000679
42.19999999999999,0.0004980000000001
42.39999999999998,0.001211
42.599999999999966,0.0014800000000001
42.80000000000001,-0.001765
43.0,-0.0042449999999998
43.19999999999999,-0.0023789999999999
43.39999999999998,-0.0003189999999999
43.599999999999966,0.0006270000000001
43.80000000000001,0.0028209999999999
44.0,0.005322
44.19999999999999,0.004869
44.39999999999998,0.0024600000000001
44.599999999999966,0.000672
44.80000000000001,0.000472
45.0,0.0007399999999999
45.19999999999999,0.0025969999999999
45.39999999999998,0.0054769999999999
45.599999999999966,0.007147
45.80000000000001,0.0068110000000001
46.0,0.005036
46.19999999999999,0.0021759999999999
46.39999999999998,-0.0017479999999998
46.599999999999966,-0.0034689999999999
46.80000000000001,-0.0029609999999999
47.0,-0.001422
47.19999999999999,0.000499
47.39999999999998,0.001157
47.599999999999966,-0.0012209999999999
47.80000000000001,-0.004356
48.0,-0.007754
48.19999999999999,-0.0088589999999999
48.39999999999998,-0.007873
48.599999999999966,-0.0044389999999998
48.80000000000001,-0.003017
49.0,-0.0028049999999999
49.19999999999999,-0.0046409999999998
49.39999999999998,-0.0044649999999999
49.599999999999966,-0.003727
49.80000000000001,-0.0028589999999999
50.0,-0.0015519999999999
50.19999999999999,0.002202
50.39999999999998,0.0027669999999999
50.599999999999966,0.0001580000000001
50.80000000000001,-0.0010319999999999
51.0,-0.0002379999999999
51.19999999999999,-0.0026979999999998
51.39999999999998,-0.0028429999999999
51.599999999999966,-0.002696
51.80000000000001,-0.003193
52.0,-0.004337
52.19999999999999,-0.0031429999999998
52.39999999999998,-0.0016899999999999
52.599999999999966,0.001424
52.80000000000001,0.004431
53.0,0.0060960000000001
53.19999999999999,0.0057009999999999
53.39999999999998,0.006196
53.599999999999966,0.006016
53.80000000000001,0.0049300000000001
54.0,0.0034420000000001
54.19999999999999,0.001662
54.39999999999998,-0.0003089999999998
54.599999999999966,-0.0009939999999999
54.80000000000001,0.0002060000000001
55.0,0.002269
55.19999999999999,0.0037
55.39999999999998,0.001892
55.599999999999966,1.0000000000065512e-05
55.80000000000001,-0.0024459999999999
56.0,-0.0046949999999998
56.19999999999999,-0.0051779999999999
56.39999999999998,-0.0045779999999999
56.599999999999966,-0.0048159999999999
56.80000000000001,-0.0053969999999998
57.0,-0.0066489999999999
57.19999999999999,-0.0055129999999998
57.39999999999998,-0.0044699999999999
57.599999999999966,-0.0028219999999998
57.80000000000001,-0.0006589999999999
58.0,0.0025520000000001
58.19999999999999,0.0023900000000001
58.39999999999998,0.000439
58.599999999999966,-0.0020089999999999
58.80000000000001,-0.0052389999999999
59.0,-0.0097589999999998
59.19999999999999,-0.0135499999999999
59.400000000000034,-0.0132799999999999
59.599999999999966,-0.0110099999999999
59.80000000000001,-0.0077519999999999
59.99999999999994,-0.0046119999999998
60.19999999999999,-0.0012449999999999
60.400000000000034,0.0015210000000001
60.599999999999966,0.0027490000000001
60.80000000000001,0.00428
60.99999999999994,0.0041600000000001
61.19999999999999,0.003271
61.400000000000034,0.0008700000000001
61.599999999999966,0.000823
61.80000000000001,-0.0006999999999999
61.99999999999994,-0.0016369999999998
62.19999999999999,-0.0018879999999998
62.400000000000034,-0.001225
62.599999999999966,-0.0031109999999998
62.80000000000001,-0.005209
62.99999999999994,-0.0050769999999999
63.19999999999999,-0.0021329999999999
63.400000000000034,-0.0010529999999999
63.599999999999966,-0.0004549999999998
63.80000000000001,0.000536
63.99999999999994,0.0015659999999999
64.19999999999999,-0.0002979999999999
64.40000000000003,-0.0036199999999999
64.59999999999997,-0.0043269999999999
64.80000000000001,-0.0019759999999999
64.99999999999994,-0.001012
65.19999999999999,-0.0001369999999998
65.40000000000003,0.0037230000000001
65.59999999999997,0.0055579999999999
65.80000000000001,0.0030270000000001
65.99999999999994,-0.000658
66.19999999999999,-0.0024769999999998
66.40000000000003,-0.0033269999999998
66.59999999999997,-0.003873
66.80000000000001,-0.0026749999999999
66.99999999999994,-0.0007359999999998
67.19999999999999,-0.0003269999999999
67.40000000000003,-0.0006829999999999
67.59999999999997,-0.0024819999999998
67.80000000000001,-0.0042389999999998
67.99999999999994,-0.0069839999999998
68.19999999999999,-0.0083759999999999
68.40000000000003,-0.008302
68.59999999999997,-0.006399
68.80000000000001,-0.0039169999999999
68.99999999999994,0.0008430000000001
69.19999999999999,0.003641
69.40000000000003,0.0028000000000001
69.59999999999997,0.002717
69.80000000000001,-8.199999999991547e-05
69.99999999999994,-0.0045949999999999
70.19999999999999,-0.0103149999999998
70.40000000000003,-0.0120409999999999
70.59999999999997,-0.013584
70.80000000000001,-0.0130439999999998
70.99999999999994,-0.0105769999999998
71.19999999999999,-0.0055179999999999
71.40000000000003,-0.0018789999999999
71.59999999999997,1.6000000000016e-05
71.80000000000001,-0.0002359999999999
71.99999999999994,-0.0006599999999998
72.19999999999999,-0.0018709999999999
72.40000000000003,-0.0024029999999999
72.59999999999997,-0.002923
72.80000000000001,-0.0026319999999999
72.99999999999994,-0.004364
73.19999999999999,-0.0052429999999998
73.40000000000003,-0.0055449999999999
73.59999999999997,-0.005417
73.80000000000001,-0.0054209999999998
73.99999999999994,-0.0022119999999998
74.19999999999999,-0.0006659999999998
74.40000000000003,-0.0036719999999998
74.59999999999997,-0.006175
74.80000000000001,-0.007112
74.99999999999994,-0.0069019999999999
75.19999999999999,-0.0077969999999998
75.40000000000003,-0.0054399999999998
75.59999999999997,-0.0044939999999999
75.80000000000001,-0.0045139999999999
75.99999999999994,-0.006488
76.19999999999999,-0.005182
76.40000000000003,-0.0047629999999998
76.59999999999997,-0.004186
76.80000000000001,-0.003525
76.99999999999994,-0.0041359999999999
77.19999999999999,-0.00502
77.40000000000003,-0.0044619999999999
77.59999999999997,-0.0030669999999999
77.80000000000001,-0.0005229999999998
77.99999999999994,0.0017279999999999
78.19999999999999,0.000634
78.40000000000003,-0.0006739999999998
78.59999999999997,-0.0019609999999998
78.80000000000001,-0.0045379999999999
78.99999999999994,-0.0069989999999999
79.19999999999999,-0.0068009999999998
79.40000000000003,-0.0073419999999999
79.59999999999997,-0.0086479999999999
79.80000000000001,-0.0101599999999999
79.99999999999994,-0.0100479999999998
80.19999999999999,-0.0097339999999999
80.40000000000003,-0.009657
80.59999999999997,-0.008294
80.80000000000001,-0.0083729999999999
80.99999999999994,-0.009031
81.19999999999999,-0.0111299999999998
81.40000000000003,-0.0126629999999998
81.59999999999997,-0.01231
81.80000000000001,-0.010704
81.99999999999994,-0.0100059999999999
82.19999999999999,-0.0096239999999998
82.40000000000003,-0.0092749999999999
82.59999999999997,-0.0122759999999999
82.80000000000001,-0.0129569999999998
82.99999999999994,-0.0125009999999998
83.19999999999999,-0.0116449999999999
83.40000000000003,-0.0100909999999998
83.59999999999997,-0.0081489999999999
83.80000000000001,-0.008429
83.99999999999994,-0.0099669999999998
84.19999999999999,-0.0095119999999999
84.40000000000003,-0.0101309999999998
84.59999999999997,-0.0113459999999998
84.80000000000001,-0.0110339999999999
84.99999999999994,-0.0097709999999999
85.19999999999999,-0.0073999999999998
85.40000000000003,-0.0061759999999999
85.59999999999997,-0.002507
85.80000000000001,-0.00014
85.99999999999994,0.0031799999999999
86.19999999999999,0.001179
86.40000000000003,0.001492
86.59999999999997,0.0009400000000001
86.80000000000001,0.002096
86.99999999999994,0.001271
87.19999999999999,0.0012929999999999
87.40000000000003,0.001263
87.59999999999997,0.0008399999999999
87.80000000000001,0.0004399999999999
87.99999999999994,-0.0020149999999998
88.19999999999999,-0.0037529999999998
88.40000000000003,-0.006931
88.59999999999997,-0.0065359999999998
88.80000000000001,-0.0097399999999998
88.99999999999994,-0.0113229999999999
89.19999999999999,-0.0115199999999999
89.40000000000003,-0.008278
89.59999999999997,-0.0089909999999999
89.80000000000001,-0.0082069999999998
89.99999999999994,-0.0057439999999999
90.2,-0.0034369999999999
90.40000000000003,-0.0033729999999998
90.59999999999997,-0.0031859999999999
90.8,-0.0022189999999999
90.99999999999994,-0.0028839999999998
91.2,-0.0077319999999998
91.40000000000003,-0.0128239999999999
91.59999999999997,-0.0170919999999998
91.8,-0.0196239999999998
91.99999999999994,-0.0226079999999999
92.2,-0.019204
92.40000000000003,-0.015695
92.59999999999997,-0.0127089999999998
92.8,-0.0111419999999999
92.99999999999994,-0.0081849999999998
93.2,-0.006448
93.40000000000003,-0.0041649999999999
93.59999999999997,-0.0024979999999998
93.8,-0.001846
93.99999999999994,0.0008050000000001
94.2,0.0037439999999999
94.40000000000003,0.0038219999999999
94.59999999999997,0.0016770000000001
94.8,-0.0010429999999999
94.99999999999994,-0.0041249999999999
95.2,-0.0073239999999998
95.40000000000003,-0.0076739999999999
95.59999999999997,-0.0069079999999999
95.8,-0.0045249999999998
95.99999999999994,-0.0046929999999998
96.2,-0.0059279999999999
96.40000000000003,-0.0091419999999999
96.59999999999997,-0.0089609999999999
96.8,-0.0104279999999998
96.99999999999994,-0.0111409999999998
97.2,-0.011781
97.40000000000003,-0.0105399999999999
97.59999999999997,-0.0123699999999999
97.8,-0.0135309999999999
97.99999999999994,-0.0136909999999998
98.2,-0.0142759999999999
98.40000000000003,-0.0163599999999999
98.59999999999997,-0.0166729999999999
98.8,-0.0135279999999999
98.99999999999994,-0.0121569999999999
99.2,-0.009614
99.40000000000003,-0.0071149999999999
99.59999999999997,-0.0055979999999999
99.8,-0.0087729999999999
99.99999999999994,-0.0100829999999998
100.2,-0.0126329999999998
100.40000000000003,-0.0144919999999999
100.59999999999997,-0.0148269999999999
100.8,-0.0135089999999999
100.99999999999994,-0.0125049999999999
101.2,-0.0116639999999998
101.40000000000003,-0.0113579999999999
101.59999999999997,-0.0105269999999999
101.8,-0.009066
101.99999999999994,-0.007538
102.2,-0.005568
102.40000000000003,-0.0038749999999998
102.59999999999997,-0.0048329999999998
102.8,-0.0045849999999998
102.99999999999994,-0.0037119999999999
103.2,-0.0049239999999999
103.40000000000003,-0.0061729999999999
103.59999999999997,-0.0081249999999999
103.8,-0.0086589999999999
103.99999999999994,-0.0111379999999998
104.2,-0.0111989999999999
104.40000000000003,-0.0107059999999998
104.59999999999997,-0.0081229999999998
104.8,-0.0086469999999998
104.99999999999994,-0.0085579999999998
105.2,-0.0081179999999998
105.40000000000003,-0.0090509999999999
105.59999999999997,-0.0102169999999999
105.8,-0.0112219999999998
105.99999999999994,-0.010008
106.2,-0.0102219999999999
106.40000000000003,-0.0099689999999998
106.59999999999997,-0.0113369999999999
106.8,-0.0111649999999998
106.99999999999994,-0.0128199999999998
107.2,-0.0146929999999998
107.40000000000003,-0.0145379999999999
107.59999999999997,-0.013036
107.8,-0.0117859999999998
107.99999999999994,-0.0120149999999998
108.2,-0.0100249999999999
108.40000000000003,-0.0090619999999999
108.59999999999997,-0.0073559999999999
108.8,-0.0070429999999999
108.99999999999994,-0.006121
109.2,-0.0057039999999999
109.40000000000003,-0.00763
109.59999999999997,-0.0108379999999999
109.8,-0.0143629999999999
109.99999999999994,-0.0157
110.2,-0.0176449999999999
110.40000000000003,-0.0157049999999998
110.59999999999997,-0.0113339999999999
110.8,-0.0068729999999999
110.99999999999994,-0.0061789999999999
111.2,-0.0048699999999999
111.40000000000003,-0.004969
111.59999999999997,-0.0066999999999999
111.8,-0.007935
111.99999999999994,-0.0060749999999998
112.2,-0.0048749999999999
112.40000000000003,-0.0057959999999999
112.59999999999997,-0.0061789999999999
112.8,-0.0068269999999999
112.99999999999994,-0.0082179999999998
113.2,-0.0108789999999998
113.40000000000003,-0.011031
113.59999999999997,-0.0123259999999998
113.8,-0.011765
113.99999999999994,-0.0119319999999998
114.2,-0.0122959999999998
114.40000000000003,-0.013225
114.59999999999997,-0.0137579999999999
114.8,-0.015476
114.99999999999994,-0.0160009999999999
115.2,-0.0138009999999999
115.40000000000003,-0.012094
115.59999999999997,-0.0098709999999999
115.8,-0.0087049999999999
115.99999999999994,-0.009646
116.2,-0.0119899999999999
116.40000000000003,-0.010615
116.59999999999997,-0.008526
116.8,-0.0056469999999999
116.99999999999994,-0.0022309999999998
117.2,-0.0007099999999999
117.40000000000003,-0.0026319999999999
117.59999999999997,-0.00692
117.8,-0.0082619999999999
117.99999999999994,-0.0092589999999999
118.2,-0.0099139999999999
118.40000000000003,-0.0101919999999999
118.59999999999997,-0.0082979999999999
118.8,-0.009762
118.99999999999994,-0.0092129999999999
119.2,-0.0073879999999999
119.40000000000003,-0.0057169999999999
119.59999999999997,-0.007371
119.8,-0.0092569999999998
119.99999999999994,-0.0124869999999999
120.2,-0.0133849999999999
120.40000000000003,-0.0134459999999998
120.59999999999997,-0.0098099999999998
120.8,-0.007735
120.99999999999994,-0.0060579999999998
121.2,-0.0054209999999998
121.40000000000003,-0.005012
121.59999999999997,-0.0061249999999999
121.8,-0.0040929999999999
121.99999999999994,-0.0019629999999999
122.2,-0.0009599999999998
122.40000000000003,-0.0013509999999998
122.59999999999997,-0.0016519999999999
122.8,-0.001873
122.99999999999994,-0.0019739999999999
123.2,-0.0029789999999998
123.40000000000003,-0.003298
123.59999999999997,-0.0050339999999999
123.8,-0.0068129999999999
123.99999999999994,-0.00936
124.2,-0.0085039999999998
124.40000000000003,-0.0065379999999999
124.59999999999997,-0.0031029999999998
124.8,-0.0013939999999998
124.99999999999994,7.900000000016227e-05
125.2,0.0004630000000001
125.40000000000003,-0.000947
125.59999999999997,-0.003746
125.8,-0.005395
125.99999999999994,-0.0048779999999999
126.2,-0.0067559999999999
126.40000000000003,-0.0088749999999999
126.59999999999997,-0.009846
126.8,-0.0092579999999999
126.99999999999994,-0.008024
127.2,-0.005379
127.40000000000003,-0.003692
127.59999999999997,-0.003954
127.8,-0.006097
127.99999999999994,-0.012005
128.2,-0.0153879999999999
128.40000000000003,-0.0168709999999998
128.59999999999997,-0.0124959999999998
128.8,-0.0078089999999999
128.99999999999994,-0.000785
129.2,0.002056
129.40000000000003,0.0043779999999999
129.59999999999997,0.000204
129.8,-0.0031239999999999
129.99999999999994,-0.0064509999999999
130.2,-0.0099099999999998
130.40000000000003,-0.0160869999999999
130.59999999999997,-0.0180499999999999
130.8,-0.0181839999999999
130.99999999999994,-0.0182609999999998
131.2,-0.0158749999999998
131.40000000000003,-0.0098639999999998
131.59999999999997,-0.005233
131.8,-0.0033889999999998
131.99999999999994,-0.0016889999999998
132.2,-0.0024359999999998
132.40000000000003,-0.0026859999999999
132.59999999999997,-0.0010969999999999
132.8,0.000566
132.99999999999994,0.000455
133.2,0.000412
133.40000000000003,-0.0009829999999999
133.59999999999997,-0.0031939999999999
133.8,-0.0068669999999999
133.99999999999994,-0.009587
134.2,-0.0120519999999999
134.40000000000003,-0.0120479999999998
134.59999999999997,-0.0124389999999998
134.8,-0.01027
134.99999999999994,-0.0083419999999998
135.2,-0.0059669999999998
135.40000000000003,-0.006494
135.59999999999997,-0.0068649999999998
135.8,-0.00719
135.99999999999994,-0.0050839999999998
136.2,-0.0026019999999999
136.40000000000003,0.0018070000000001
136.59999999999997,0.0032879999999999
136.8,0.001641
136.99999999999994,-0.0005899999999998
137.2,-0.0024319999999999
137.40000000000003,-0.0058719999999998
137.59999999999997,-0.007592
137.8,-0.0066269999999999
137.99999999999994,-0.0062659999999998
138.2,-0.0071219999999998
138.40000000000003,-0.0081629999999999
138.59999999999997,-0.0093369999999999
138.8,-0.0112049999999999
138.99999999999994,-0.012213
139.2,-0.0156539999999998
139.40000000000003,-0.0193299999999998
139.59999999999997,-0.0209979999999998
139.8,-0.02098
139.99999999999994,-0.0219279999999999
140.2,-0.0187379999999999
140.40000000000003,-0.014116
140.59999999999997,-0.0112769999999999
140.8,-0.0104119999999998
140.99999999999994,-0.0087219999999998
141.2,-0.0082069999999998
141.40000000000003,-0.0086039999999998
141.59999999999997,-0.0109719999999999
141.8,-0.0111729999999998
141.99999999999994,-0.01024
142.2,-0.008807
142.40000000000003,-0.0094079999999998
142.59999999999997,-0.006043
142.8,-0.002739
142.99999999999994,-0.0018139999999999
143.2,-0.0034479999999998
143.40000000000003,-0.0018709999999999
143.59999999999997,-0.000955
143.8,-0.0030789999999998
143.99999999999994,-0.006596
144.2,-0.0071619999999998
144.40000000000003,-0.0073479999999999
144.59999999999997,-0.0077449999999998
144.8,-0.0087329999999998
144.99999999999994,-0.0088219999999998
145.2,-0.0098819999999999
145.40000000000003,-0.0124159999999999
145.59999999999997,-0.0154669999999998
145.8,-0.0150219999999998
145.99999999999994,-0.013293
146.2,-0.010602
146.40000000000003,-0.007101
146.59999999999997,-0.0046899999999998
146.8,-0.0059559999999998
146.99999999999994,-0.0099359999999999
147.2,-0.011862
147.40000000000003,-0.0134109999999998
147.59999999999997,-0.0129809999999999
147.8,-0.0109879999999999
147.99999999999994,-0.0087679999999998
148.2,-0.0098369999999998
148.40000000000003,-0.0130299999999998
148.59999999999997,-0.0163549999999998
148.8,-0.0185889999999999
148.99999999999994,-0.0184629999999998
149.2,-0.0173149999999999
149.40000000000003,-0.0145319999999999
149.59999999999997,-0.0132609999999999
149.8,-0.0128919999999999
149.99999999999994,-0.0111129999999999
150.2,-0.0085299999999999
150.40000000000003,-0.0056049999999998
150.59999999999997,-0.0041099999999998
150.8,-0.003125
150.99999999999994,-0.0031319999999999
151.2,-0.003878
151.40000000000003,-0.0052649999999998
151.59999999999997,-0.0047359999999998
151.8,-0.0028949999999998
151.99999999999994,-0.0039179999999998
152.2,-0.0062309999999998
152.40000000000003,-0.0100799999999998
152.59999999999997,-0.012672
152.8,-0.0136969999999998
152.99999999999994,-0.0122389999999998
153.2,-0.0119259999999998
153.40000000000003,-0.0111299999999998
153.59999999999997,-0.0113499999999999
153.8,-0.0125169999999998
153.99999999999994,-0.0128539999999999
154.2,-0.0103599999999999
154.40000000000003,-0.0070369999999999
154.59999999999997,-0.004885
154.8,-0.005611
154.99999999999994,-0.0073749999999999
155.2,-0.0112729999999998
155.40000000000003,-0.015001
155.59999999999997,-0.014974
155.8,-0.012556
155.99999999999994,-0.0100879999999998
156.2,-0.0076119999999999
156.40000000000003,-0.0064109999999999
156.59999999999997,-0.0080979999999999
156.8,-0.0098789999999999
156.99999999999994,-0.0107749999999999
157.2,-0.0108239999999999
157.40000000000003,-0.0101519999999999
157.59999999999997,-0.010364
157.8,-0.0118739999999999
157.99999999999994,-0.013557
158.2,-0.0144359999999998
158.40000000000003,-0.0145819999999998
158.59999999999997,-0.015255
158.8,-0.0136259999999999
158.99999999999994,-0.014807
159.2,-0.0154079999999998
159.40000000000003,-0.0146129999999999
159.59999999999997,-0.0119149999999998
159.8,-0.0100709999999999
159.99999999999994,-0.0086979999999998
160.2,-0.0087829999999999
160.40000000000003,-0.0087869999999998
160.59999999999997,-0.0096469999999999
160.8,-0.0128349999999999
160.99999999999994,-0.013827
161.2,-0.0121649999999999
161.40000000000003,-0.012108
161.59999999999997,-0.011962
161.8,-0.0106039999999998
161.99999999999994,-0.0083949999999999
162.2,-0.0079719999999998
162.40000000000003,-0.0071579999999999
162.59999999999997,-0.0066269999999999
162.8,-0.0066089999999998
162.99999999999994,-0.0085699999999999
163.2,-0.0112909999999999
163.40000000000003,-0.0133449999999999
163.59999999999997,-0.0147749999999999
163.8,-0.0162259999999998
163.99999999999994,-0.0151239999999999
164.2,-0.0140439999999999
164.40000000000003,-0.0137
164.59999999999997,-0.0144999999999999
164.8,-0.0133499999999999
164.99999999999994,-0.0127099999999999
165.2,-0.0101909999999998
165.40000000000003,-0.0105859999999999
165.59999999999997,-0.0112399999999999
165.8,-0.012969
165.99999999999994,-0.017112
166.2,-0.0237439999999999
166.40000000000003,-0.0270569999999998
166.59999999999997,-0.02651
166.8,-0.024189
166.99999999999994,-0.0184779999999999
167.2,-0.0132349999999998
167.40000000000003,-0.0097909999999998
167.59999999999997,-0.009328
167.8,-0.0111379999999998
167.99999999999994,-0.0139019999999998
168.2,-0.0147909999999999
168.40000000000003,-0.0168329999999998
168.59999999999997,-0.0177369999999998
168.8,-0.0166739999999998
168.99999999999994,-0.0155579999999999
169.2,-0.0162329999999999
169.40000000000003,-0.0148179999999999
169.59999999999997,-0.0133989999999999
169.8,-0.0127969999999999
169.99999999999994,-0.0122569999999999
170.2,-0.0100709999999999
170.40000000000003,-0.008745
170.59999999999997,-0.0099499999999999
170.8,-0.0127779999999999
170.99999999999994,-0.015028
171.2,-0.0159389999999999
171.40000000000003,-0.0159289999999998
171.59999999999997,-0.0148159999999999
171.8,-0.0158309999999999
171.99999999999994,-0.0173509999999998
172.2,-0.0198989999999998
172.40000000000003,-0.0210169999999998
172.59999999999997,-0.021101
172.8,-0.017077
172.99999999999994,-0.0138509999999998
173.2,-0.0114179999999999
173.40000000000003,-0.011449
173.59999999999997,-0.013031
173.8,-0.0153209999999999
173.99999999999994,-0.0167209999999999
174.2,-0.0172649999999998
174.40000000000003,-0.0184709999999999
174.59999999999997,-0.0172799999999999
174.8,-0.0150129999999999
174.99999999999994,-0.0143079999999999
175.2,-0.0150479999999999
175.40000000000003,-0.0153299999999998
175.59999999999997,-0.0145589999999999
175.8,-0.014696
175.99999999999994,-0.0164549999999998
176.2,-0.0159799999999998
176.40000000000003,-0.0149599999999998
176.59999999999997,-0.01468
176.8,-0.014788
176.99999999999994,-0.014259
177.2,-0.0154159999999998
177.40000000000003,-0.0152259999999999
177.59999999999997,-0.0138899999999999
177.8,-0.0135889999999998
177.99999999999994,-0.0120649999999999
178.2,-0.011649
178.40000000000003,-0.0133219999999998
178.59999999999997,-0.0171699999999999
178.8,-0.018486
178.99999999999994,-0.0195909999999999
179.2,-0.0175039999999999
179.40000000000003,-0.014243
179.59999999999997,-0.0117319999999998
179.8,-0.0123839999999999
179.99999999999994,-0.0129699999999999
180.2,-0.0150749999999999
180.40000000000003,-0.016777
180.6,-0.0176399999999998
180.8,-0.0157909999999998
180.99999999999997,-0.0142119999999998
181.2,-0.0149619999999999
181.40000000000003,-0.0169079999999999
181.6,-0.0181409999999999
181.8,-0.016364
181.99999999999997,-0.0154689999999999
182.2,-0.0138689999999999
182.40000000000003,-0.0111699999999999
182.6,-0.0108049999999999
182.8,-0.0161529999999998
182.99999999999997,-0.0201209999999998
183.2,-0.0181679999999999
183.40000000000003,-0.0160209999999998
183.6,-0.0137529999999999
183.8,-0.0106949999999998
183.99999999999997,-0.006726
184.2,-0.0078659999999999
184.40000000000003,-0.011557
184.6,-0.0133649999999998
184.8,-0.0143739999999998
184.99999999999997,-0.0160769999999998
185.2,-0.0153349999999998
185.40000000000003,-0.010202
185.6,-0.0046359999999998
185.8,-5.000000000032756e-06
185.99999999999997,0.002974
186.2,0.0043779999999999
186.40000000000003,0.005179
186.6,0.0031039999999999
186.8,-0.0002579999999998
186.99999999999997,-0.0047669999999999
187.2,-0.0081189999999999
187.40000000000003,-0.0124919999999999
187.6,-0.015309
187.8,-0.0147109999999999
187.99999999999997,-0.0105979999999998
188.2,-0.0082499999999998
188.40000000000003,-0.0072019999999999
188.6,-0.0072569999999998
188.8,-0.0100629999999999
188.99999999999997,-0.0125889999999999
189.2,-0.0142489999999999
189.40000000000003,-0.0151539999999998
189.6,-0.014769
189.8,-0.0144779999999999
189.99999999999997,-0.014375
190.2,-0.01227
190.40000000000003,-0.0097329999999999
190.6,-0.008135
190.8,-0.005654
190.99999999999997,-0.0058979999999999
191.2,-0.0084889999999999
191.40000000000003,-0.0120229999999998
191.6,-0.0141919999999999
191.8,-0.0140149999999998
191.99999999999997,-0.015503
192.2,-0.0181849999999998
192.40000000000003,-0.019031
192.6,-0.0181789999999999
192.8,-0.018815
192.99999999999997,-0.016262
193.2,-0.0119369999999998
193.40000000000003,-0.010491
193.6,-0.0136469999999999
193.8,-0.015058
193.99999999999997,-0.0155079999999998
194.2,-0.0171609999999999
194.40000000000003,-0.0156049999999998
194.6,-0.012035
194.8,-0.0102959999999998
194.99999999999997,-0.0091459999999998
195.2,-0.0076589999999998
195.40000000000003,-0.0092069999999999
195.6,-0.009336
195.8,-0.009568
195.99999999999997,-0.010931
196.2,-0.011822
196.40000000000003,-0.0089329999999998
196.6,-0.008224
196.8,-0.008321
196.99999999999997,-0.0096049999999998
197.2,-0.0114689999999999
197.40000000000003,-0.0140419999999998
197.6,-0.015989
197.8,-0.017849
197.99999999999997,-0.0152319999999999
198.2,-0.0110349999999999
198.40000000000003,-0.0115779999999998
198.6,-0.011784
198.8,-0.008839
198.99999999999997,-0.006162
199.2,-0.0046389999999998
199.40000000000003,-0.0016289999999998
199.6,-0.0002929999999998
199.8,-0.0015639999999998
199.99999999999997,-0.0063769999999998
200.2,-0.010097
200.40000000000003,-0.012534
200.6,-0.0121979999999999
200.8,-0.0094269999999998
200.99999999999997,-0.0088899999999998
201.2,-0.009665
201.40000000000003,-0.0088439999999998
201.6,-0.0086119999999998
201.8,-0.0128939999999999
201.99999999999997,-0.0134659999999999
202.2,-0.0113049999999998
202.40000000000003,-0.0094449999999999
202.6,-0.0078949999999999
202.8,-0.00563
202.99999999999997,-0.0025029999999999
203.2,-0.0021579999999998
203.40000000000003,-0.0033129999999998
203.6,-0.0040909999999998
203.8,-0.0040289999999998
203.99999999999997,-0.0066739999999998
204.2,-0.0101689999999998
204.40000000000003,-0.0154279999999999
204.6,-0.0218169999999999
204.8,-0.0264819999999998
204.99999999999997,-0.0287159999999999
205.2,-0.0288479999999999
205.40000000000003,-0.0246319999999999
205.6,-0.019104
205.8,-0.0151249999999998
205.99999999999997,-0.013001
206.2,-0.0129759999999998
206.40000000000003,-0.014807
206.6,-0.0163539999999999
206.8,-0.0172029999999998
206.99999999999997,-0.0184959999999998
207.2,-0.0176179999999999
207.40000000000003,-0.0171029999999998
207.6,-0.0164239999999999
207.8,-0.0157389999999999
207.99999999999997,-0.0108369999999999
208.2,-0.0076019999999998
208.40000000000003,-0.0071259999999999
208.6,-0.0062029999999999
208.8,-0.0067049999999999
208.99999999999997,-0.010534
209.2,-0.0157389999999999
209.40000000000003,-0.016167
209.6,-0.0174499999999999
209.8,-0.0172229999999999
209.99999999999997,-0.0174399999999999
210.2,-0.0165199999999998
210.40000000000003,-0.0170179999999999
210.6,-0.0195009999999999
210.8,-0.0202109999999999
210.99999999999997,-0.0189649999999999
211.2,-0.017517
211.40000000000003,-0.0154559999999999
211.6,-0.0105399999999999
211.8,-0.0108089999999998
211.99999999999997,-0.0130779999999999
212.2,-0.0156449999999999
212.40000000000003,-0.0145709999999998
212.6,-0.0148759999999998
212.8,-0.0147829999999999
212.99999999999997,-0.012934
213.2,-0.0104459999999999
213.40000000000003,-0.0104229999999998
213.6,-0.0117789999999999
213.8,-0.0103079999999999
213.99999999999997,-0.010826
214.2,-0.0100709999999999
214.40000000000003,-0.0134269999999998
214.6,-0.0163329999999999
214.8,-0.0165519999999999
214.99999999999997,-0.0146769999999998
215.2,-0.0161929999999999
215.40000000000003,-0.0169699999999999
215.6,-0.01563
215.8,-0.0160499999999998
215.99999999999997,-0.015911
216.2,-0.01617
216.40000000000003,-0.0155009999999999
216.6,-0.016764
216.8,-0.0176389999999999
216.99999999999997,-0.0197009999999999
217.2,-0.0178749999999998
217.40000000000003,-0.0146549999999998
217.6,-0.0096099999999998
217.8,-0.0051449999999999
217.99999999999997,-0.0024109999999999
218.2,-0.0018949999999999
218.40000000000003,-0.0026909999999999
218.6,-0.004434
218.8,-0.0068239999999999
218.99999999999997,-0.0060819999999999
219.2,-0.0070419999999999
219.40000000000003,-0.0093269999999998
219.6,-0.0096479999999998
219.8,-0.0087699999999999
219.99999999999997,-0.0107049999999999
220.2,-0.0106809999999999
220.40000000000003,-0.0100479999999998
220.6,-0.010896
220.8,-0.0126519999999998
220.99999999999997,-0.0133369999999999
221.2,-0.0140799999999998
221.40000000000003,-0.013452
221.6,-0.0136509999999998
221.8,-0.0148269999999999
221.99999999999997,-0.0175499999999999
222.2,-0.0179149999999999
222.40000000000003,-0.0169729999999999
222.6,-0.015352
222.8,-0.0139449999999998
222.99999999999997,-0.0104569999999999
223.2,-0.0099089999999999
223.40000000000003,-0.0104079999999999
223.6,-0.0123379999999999
223.8,-0.012804
223.99999999999997,-0.0126779999999999
224.2,-0.010985
224.40000000000003,-0.0109789999999998
224.6,-0.009657
224.8,-0.0097829999999998
224.99999999999997,-0.0088979999999998
225.2,-0.00851
225.40000000000003,-0.0094879999999999
225.6,-0.0146159999999999
225.8,-0.0169399999999999
225.99999999999997,-0.0204069999999998
226.2,-0.0233989999999999
226.40000000000003,-0.0230679999999998
226.6,-0.0202249999999999
226.8,-0.019822
226.99999999999997,-0.020008
227.2,-0.0193829999999999
227.40000000000003,-0.017082
227.6,-0.0160009999999999
227.8,-0.0140479999999998
227.99999999999997,-0.0136499999999999
228.2,-0.013085
228.40000000000003,-0.0151879999999999
228.6,-0.0151749999999999
228.8,-0.017773
228.99999999999997,-0.0184459999999999
229.2,-0.0191589999999999
229.40000000000003,-0.0181829999999998
229.6,-0.0169759999999998
229.8,-0.0142619999999999
229.99999999999997,-0.0117509999999998
230.2,-0.010958
230.40000000000003,-0.0105219999999999
230.6,-0.0121639999999998
230.8,-0.0137889999999998
230.99999999999997,-0.0160929999999999
231.2,-0.0176959999999999
231.40000000000003,-0.0188249999999998
231.6,-0.0195019999999999
231.8,-0.0200369999999998
231.99999999999997,-0.0199099999999998
232.2,-0.018861
232.40000000000003,-0.019598
232.6,-0.018742
232.8,-0.0189059999999998
232.99999999999997,-0.0196039999999999
233.2,-0.018715
233.40000000000003,-0.0180289999999998
233.6,-0.0176169999999999
233.8,-0.0158749999999998
233.99999999999997,-0.0136859999999998
234.2,-0.012858
234.40000000000003,-0.0119979999999999
234.6,-0.0096699999999998
234.8,-0.008151
234.99999999999997,-0.0075549999999999
235.2,-0.0091409999999998
235.40000000000003,-0.0103419999999998
235.6,-0.0123979999999999
235.8,-0.013301
235.99999999999997,-0.0153699999999998
236.2,-0.0162899999999999
236.40000000000003,-0.0182769999999998
236.6,-0.020097
236.8,-0.0222149999999998
236.99999999999997,-0.0224899999999999
237.2,-0.022475
237.40000000000003,-0.0209049999999999
237.6,-0.019603
237.8,-0.0183679999999999
237.99999999999997,-0.0169629999999998
238.2,-0.0165979999999998
238.40000000000003,-0.0187869999999998
238.6,-0.0202419999999998
238.8,-0.0199229999999999
238.99999999999997,-0.0213069999999999
239.2,-0.0217539999999998
239.40000000000003,-0.0207919999999999
239.6,-0.020942
239.8,-0.020899
239.99999999999997,-0.0161709999999999
240.2,-0.011646
240.40000000000003,-0.007676
240.6,-0.0077419999999999
240.8,-0.008502
240.99999999999997,-0.0120759999999999
241.2,-0.0164659999999998
241.40000000000003,-0.019757
241.6,-0.018893
241.8,-0.0205409999999999
241.99999999999997,-0.0221569999999999
242.2,-0.0225149999999998
242.40000000000003,-0.0207709999999998
242.6,-0.0180989999999998
242.8,-0.0133499999999999
242.99999999999997,-0.0104469999999998
243.2,-0.0085189999999999
243.40000000000003,-0.0084249999999999
243.6,-0.0109209999999999
243.8,-0.0164529999999998
243.99999999999997,-0.0194289999999999
244.2,-0.0221789999999999
244.40000000000003,-0.0257509999999998
244.6,-0.0284419999999998
244.8,-0.0255389999999999
244.99999999999997,-0.0223489999999999
245.2,-0.0173639999999999
245.40000000000003,-0.0148409999999998
245.6,-0.0099099999999998
245.8,-0.0099899999999999
245.99999999999997,-0.0101369999999998
246.2,-0.0121829999999998
246.40000000000003,-0.0107249999999998
246.6,-0.0104509999999999
246.8,-0.0097709999999999
246.99999999999997,-0.0102619999999999
247.2,-0.0113119999999999
247.40000000000003,-0.0139229999999999
247.6,-0.0174349999999998
247.8,-0.0203249999999999
247.99999999999997,-0.0245299999999999
248.2,-0.0291239999999999
248.40000000000003,-0.0291179999999999
248.6,-0.0284579999999998
248.8,-0.0281469999999999
248.99999999999997,-0.0276799999999999
249.2,-0.024939
249.40000000000003,-0.0244109999999999
249.6,-0.024872
249.8,-0.0241489999999999
249.99999999999997,-0.0220759999999999
250.2,-0.0199669999999998
250.40000000000003,-0.0196909999999999
250.6,-0.0193339999999999
250.8,-0.0188649999999999
250.99999999999997,-0.0178239999999998
251.2,-0.0188429999999999
251.40000000000003,-0.0191969999999999
251.6,-0.0201879999999998
251.8,-0.0209009999999998
251.99999999999997,-0.0216259999999999
252.2,-0.0209079999999999
252.40000000000003,-0.0210899999999998
252.6,-0.020418
252.8,-0.0205319999999999
252.99999999999997,-0.0206589999999999
253.2,-0.0216579999999999
253.40000000000003,-0.021031
253.6,-0.0181419999999998
253.8,-0.0144499999999998
253.99999999999997,-0.0109449999999999
254.2,-0.007541
254.40000000000003,-0.0050859999999999
254.6,-0.0059279999999999
254.8,-0.0101569999999999
254.99999999999997,-0.0145589999999999
255.2,-0.0189009999999998
255.40000000000003,-0.0214729999999998
255.6,-0.022526
255.8,-0.0199249999999999
255.99999999999997,-0.0185739999999998
256.2,-0.0178039999999999
256.40000000000003,-0.0175469999999999
256.6,-0.017706
256.8,-0.0193679999999998
256.99999999999994,-0.020923
257.2,-0.0211249999999998
257.40000000000003,-0.0229809999999999
257.6,-0.023209
257.8,-0.0223999999999999
257.99999999999994,-0.0215469999999999
258.2,-0.0202919999999999
258.40000000000003,-0.0191669999999999
258.6,-0.0203009999999999
258.8,-0.0209889999999999
258.99999999999994,-0.0212429999999999
259.2,-0.0233829999999999
259.40000000000003,-0.0257469999999999
259.6,-0.027455
259.8,-0.0301829999999998
259.99999999999994,-0.0316689999999999
260.2,-0.0322869999999999
260.40000000000003,-0.0311899999999998
260.6,-0.0290859999999999
260.8,-0.0251029999999998
260.99999999999994,-0.02163
261.2,-0.0177179999999999
261.40000000000003,-0.0162409999999999
261.6,-0.0163489999999999
261.8,-0.018869
261.99999999999994,-0.0194919999999998
262.2,-0.0216589999999998
262.40000000000003,-0.0221569999999999
262.6,-0.0216589999999998
262.8,-0.0196239999999998
262.99999999999994,-0.0189949999999998
263.2,-0.016572
263.40000000000003,-0.0161629999999999
263.6,-0.015881
263.8,-0.0177359999999999
263.99999999999994,-0.0192509999999999
264.2,-0.0218099999999998
264.40000000000003,-0.0210709999999998
264.6,-0.0193679999999998
264.8,-0.0168899999999998
264.99999999999994,-0.0166509999999999
265.2,-0.015592
265.40000000000003,-0.0148649999999999
265.6,-0.0160119999999999
265.8,-0.0193999999999998
265.99999999999994,-0.0214699999999998
266.2,-0.023158
266.40000000000003,-0.0242979999999999
266.6,-0.0243569999999999
266.8,-0.01973
266.99999999999994,-0.0164949999999999
267.2,-0.0132319999999999
267.40000000000003,-0.012853
267.6,-0.0138819999999999
267.8,-0.0154749999999999
267.99999999999994,-0.015773
268.2,-0.020348
268.40000000000003,-0.026151
268.6,-0.0286119999999998
268.8,-0.0294019999999999
268.99999999999994,-0.0297859999999998
269.2,-0.0253769999999999
269.40000000000003,-0.0194839999999998
269.6,-0.0152289999999999
269.8,-0.014081
269.99999999999994,-0.0133239999999998
270.2,-0.013368
270.40000000000003,-0.013236
270.6,-0.013989
270.8,-0.0147349999999999
270.99999999999994,-0.016726
271.2,-0.017031
271.40000000000003,-0.0156619999999998
271.6,-0.015544
271.8,-0.0147049999999999
271.99999999999994,-0.0120949999999999
272.2,-0.0106939999999999
272.40000000000003,-0.010356
272.6,-0.0108889999999999
272.8,-0.0110979999999998
272.99999999999994,-0.0121169999999999
273.2,-0.0154299999999998
273.40000000000003,-0.0180489999999999
273.6,-0.0172689999999999
273.8,-0.0173879999999999
273.99999999999994,-0.017568
274.2,-0.0159739999999999
274.40000000000003,-0.012823
274.6,-0.0115289999999999
274.8,-0.0104959999999998
274.99999999999994,-0.0116439999999999
275.2,-0.0112269999999998
275.40000000000003,-0.0147599999999998
275.6,-0.0151869999999998
275.8,-0.016602
275.99999999999994,-0.0160369999999998
276.2,-0.0177009999999999
276.40000000000003,-0.015436
276.6,-0.0152989999999999
276.8,-0.015781
276.99999999999994,-0.0165329999999999
277.2,-0.0158609999999999
277.40000000000003,-0.0170609999999999
277.6,-0.018969
277.8,-0.0193689999999999
277.99999999999994,-0.017395
278.2,-0.0153809999999998
278.40000000000003,-0.0138599999999999
278.6,-0.0098909999999998
278.8,-0.0049949999999998
278.99999999999994,-0.0030409999999998
279.2,-0.0038849999999999
279.40000000000003,-0.0048219999999998
279.6,-0.0076749999999998
279.8,-0.0104499999999998
279.99999999999994,-0.01126
280.2,-0.011371
280.40000000000003,-0.0108239999999999
280.6,-0.0132339999999999
280.8,-0.0154179999999999
280.99999999999994,-0.0182339999999998
281.2,-0.0201409999999999
281.40000000000003,-0.0228859999999999
281.6,-0.0216339999999999
281.8,-0.019309
281.99999999999994,-0.0179319999999998
282.2,-0.0153829999999999
282.40000000000003,-0.0113209999999999
282.6,-0.007225
282.8,-0.0068869999999998
282.99999999999994,-0.0089949999999998
283.2,-0.0132029999999998
283.40000000000003,-0.0177669999999998
283.6,-0.0215769999999999
283.8,-0.0258399999999998
283.99999999999994,-0.0258639999999998
284.2,-0.025598
284.40000000000003,-0.0236779999999998
284.6,-0.0211219999999998
284.8,-0.017104
284.99999999999994,-0.0149569999999998
285.2,-0.012745
285.40000000000003,-0.0118389999999999
285.6,-0.0144899999999998
285.8,-0.0159369999999998
285.99999999999994,-0.01763
286.2,-0.0172029999999998
286.40000000000003,-0.018011
286.6,-0.0171669999999999
286.8,-0.0186789999999998
286.99999999999994,-0.0190569999999998
287.2,-0.0198049999999998
287.40000000000003,-0.0192189999999998
287.6,-0.018499
287.8,-0.015522
287.99999999999994,-0.0117119999999999
288.2,-0.010561
288.40000000000003,-0.0120329999999999
288.6,-0.013622
288.8,-0.0141339999999998
288.99999999999994,-0.016618
289.2,-0.0184729999999999
289.40000000000003,-0.0194729999999998
289.6,-0.0194069999999999
289.8,-0.0213069999999999
289.99999999999994,-0.0227129999999999
290.2,-0.0227869999999998
290.40000000000003,-0.0210379999999998
290.6,-0.0191159999999999
290.8,-0.0175639999999999
290.99999999999994,-0.0167919999999999
291.2,-0.016718
291.40000000000003,-0.0185789999999999
291.6,-0.0189519999999998
291.8,-0.01593
291.99999999999994,-0.0115469999999999
292.2,-0.0105889999999999
292.40000000000003,-0.0098019999999998
292.6,-0.0110989999999999
292.8,-0.0146439999999998
292.99999999999994,-0.017722
293.2,-0.0202639999999998
293.40000000000003,-0.0209429999999999
293.6,-0.021525
293.8,-0.0214159999999998
293.99999999999994,-0.0230289999999999
294.2,-0.0216269999999998
294.40000000000003,-0.0217169999999999
294.6,-0.0216689999999999
294.8,-0.0207779999999999
294.99999999999994,-0.0195239999999998
295.2,-0.019128
295.40000000000003,-0.0176289999999998
295.6,-0.0166459999999999
295.8,-0.017946
295.99999999999994,-0.0201209999999998
296.2,-0.0210019999999999
296.40000000000003,-0.022391
296.6,-0.0243819999999999
296.8,-0.0238369999999998
296.99999999999994,-0.019271
297.2,-0.020353
297.40000000000003,-0.0240310000000001
297.6000000000001,-0.0262580000000001
297.8,-0.027795
298.00000000000006,-0.029873
298.2,-0.0277020000000001
298.40000000000003,-0.0241230000000001
298.6000000000001,-0.0231480000000001
298.8,-0.0236560000000001
299.00000000000006,-0.024148
299.2,-0.0242920000000002
299.40000000000003,-0.0257830000000001
299.6000000000001,-0.0272350000000001
299.8,-0.028073
300.00000000000006,-0.0284730000000001
300.2,-0.0284170000000001
300.40000000000003,-0.0276850000000001
300.6000000000001,-0.0269990000000002
300.8,-0.0289180000000002
301.00000000000006,-0.0292420000000002
301.2,-0.029838
301.40000000000003,-0.0284710000000001
301.6000000000001,-0.0266780000000002
301.8,-0.025176
302.00000000000006,-0.0239420000000001
302.2,-0.0246650000000001
302.40000000000003,-0.027422
302.6000000000001,-0.029878
302.8,-0.0300250000000001
303.00000000000006,-0.0304270000000002
303.2,-0.0304160000000002
303.40000000000003,-0.0317720000000001
303.6000000000001,-0.0338850000000001
303.8,-0.035652
304.00000000000006,-0.0362460000000002
304.2,-0.0380060000000002
304.40000000000003,-0.0364010000000001
304.6000000000001,-0.035214
304.8,-0.0341530000000001
305.00000000000006,-0.0341200000000001
305.2,-0.0322710000000001
305.40000000000003,-0.0316390000000001
305.6000000000001,-0.030399
305.8,-0.0283760000000001
306.00000000000006,-0.02645
306.2,-0.0257260000000001
306.40000000000003,-0.0261140000000001
306.6000000000001,-0.026612
306.8,-0.0284160000000002
307.00000000000006,-0.0312130000000001
307.2,-0.0355130000000001
307.40000000000003,-0.039025
307.6000000000001,-0.0382550000000001
307.8,-0.036202
308.00000000000006,-0.0342460000000002
308.2,-0.0322460000000002
308.40000000000003,-0.0310240000000001
308.6000000000001,-0.0322110000000002
308.8,-0.0323440000000001
309.00000000000006,-0.0308890000000001
309.2,-0.0296170000000002
309.40000000000003,-0.0290260000000002
309.6000000000001,-0.027652
309.8,-0.0287670000000002
310.00000000000006,-0.02929
310.2,-0.0288020000000002
310.40000000000003,-0.0266270000000001
310.6000000000001,-0.0269460000000001
310.8,-0.02661
311.00000000000006,-0.0289220000000001
311.2,-0.0303080000000002
311.40000000000003,-0.0334850000000002
311.6000000000001,-0.034899
311.8,-0.0351080000000001
312.00000000000006,-0.0325080000000002
312.2,-0.0328300000000001
312.40000000000003,-0.032043
312.6000000000001,-0.033258
312.8,-0.0350480000000001
313.00000000000006,-0.0383660000000001
313.2,-0.0391450000000002
313.40000000000003,-0.0384080000000002
313.6000000000001,-0.037403
313.8,-0.034936
314.00000000000006,-0.0330000000000001
314.2,-0.0329560000000002
314.40000000000003,-0.0338170000000002
314.6000000000001,-0.033133
314.8,-0.0320330000000002
315.00000000000006,-0.032356
315.2,-0.0308520000000001
315.40000000000003,-0.029684
315.6000000000001,-0.02719
315.8,-0.0266870000000001
316.00000000000006,-0.0256340000000001
316.2,-0.025082
316.40000000000003,-0.024423
316.6000000000001,-0.0266160000000001
316.8,-0.0295610000000001
317.00000000000006,-0.0319250000000002
317.2,-0.036486
317.40000000000003,-0.0408490000000001
317.6000000000001,-0.0428940000000002
317.8,-0.0431210000000001
318.00000000000006,-0.0420760000000002
318.2,-0.0394560000000001
318.40000000000003,-0.040329
318.6000000000001,-0.0421990000000001
318.8,-0.0418640000000001
319.00000000000006,-0.0415400000000001
319.2,-0.040227
319.40000000000003,-0.035141
319.6000000000001,-0.031034
319.8,-0.033598
320.00000000000006,-0.0371760000000001
320.2,-0.0376230000000001
320.40000000000003,-0.039668
320.6000000000001,-0.0408130000000002
320.8,-0.0388490000000001
321.00000000000006,-0.0362730000000002
321.2,-0.0341440000000001
321.40000000000003,-0.0307520000000001
321.6000000000001,-0.0311610000000002
321.8,-0.028985
322.00000000000006,-0.0260070000000001
322.2,-0.027104
322.40000000000003,-0.0261150000000001
322.6000000000001,-0.0243850000000001
322.8,-0.0270350000000001
323.00000000000006,-0.0306540000000001
323.2,-0.0311160000000001
323.40000000000003,-0.0345200000000001
323.6000000000001,-0.036013
323.8,-0.0359010000000001
324.00000000000006,-0.0350000000000001
324.2,-0.0357930000000001
324.40000000000003,-0.0351100000000002
324.6000000000001,-0.0341250000000001
324.8,-0.0325240000000002
325.00000000000006,-0.0304140000000001
325.2,-0.028871
325.40000000000003,-0.0299220000000002
325.6000000000001,-0.03109
325.8,-0.0334780000000001
326.00000000000006,-0.0375770000000001
326.2,-0.040505
326.40000000000003,-0.041784
326.6000000000001,-0.0445390000000001
326.8,-0.0456210000000001
327.00000000000006,-0.045241
327.2,-0.0444730000000002
327.40000000000003,-0.0435670000000001
327.6000000000001,-0.040694
327.8,-0.0389080000000001
328.00000000000006,-0.037565
328.2,-0.034464
328.40000000000003,-0.030194
328.6000000000001,-0.0282150000000001
328.8,-0.026011
329.00000000000006,-0.0258910000000001
329.2,-0.0288240000000001
329.40000000000003,-0.033074
329.6000000000001,-0.0336980000000002
329.8,-0.0354610000000001
330.00000000000006,-0.0383170000000001
330.2,-0.0405380000000001
330.40000000000003,-0.0423740000000001
330.6000000000001,-0.0439010000000001
330.8,-0.044874
331.00000000000006,-0.045161
331.2,-0.0454040000000002
331.40000000000003,-0.0436720000000001
331.6000000000001,-0.043457
331.8,-0.0412340000000002
332.00000000000006,-0.0372890000000001
332.2,-0.0339440000000001
332.40000000000003,-0.0334180000000001
332.6000000000001,-0.036124
332.8,-0.0390650000000001
333.00000000000006,-0.041136
333.2,-0.0402870000000001
333.40000000000003,-0.0406430000000002
333.6000000000001,-0.0387030000000001
333.8,-0.0370830000000002
334.00000000000006,-0.035096
334.2,-0.0362610000000001
334.40000000000003,-0.035276
334.6000000000001,-0.034156
334.8,-0.0339790000000002
335.00000000000006,-0.034985
335.2,-0.036766
335.40000000000003,-0.0391030000000001
335.6000000000001,-0.0405700000000002
335.8,-0.0413180000000001
336.00000000000006,-0.0416180000000001
336.2,-0.0394960000000002
336.40000000000003,-0.0379200000000001
336.6000000000001,-0.038963
336.8,-0.0416180000000001
337.00000000000006,-0.0425620000000002
337.2,-0.0449350000000001
337.40000000000003,-0.04339
337.6000000000001,-0.037223
337.8,-0.0304900000000001
338.00000000000006,-0.0288350000000001
338.2,-0.028413
338.40000000000003,-0.0301110000000002
338.6000000000001,-0.033749
338.8,-0.037722
339.00000000000006,-0.041325
339.2,-0.042351
339.40000000000003,-0.042685
339.6000000000001,-0.042653
339.8,-0.0444350000000002
340.00000000000006,-0.0432530000000002
340.2,-0.041946
340.40000000000003,-0.0409680000000001
340.6000000000001,-0.041166
340.8,-0.0377960000000001
341.00000000000006,-0.0345760000000001
341.2,-0.03241
341.40000000000003,-0.033371
341.6000000000001,-0.036661
341.8,-0.0410730000000001
342.00000000000006,-0.0456780000000001
342.2,-0.0485250000000001
342.40000000000003,-0.0481770000000001
342.6000000000001,-0.0433110000000001
342.8,-0.0404850000000001
343.00000000000006,-0.0361610000000001
343.2,-0.0341140000000002
343.40000000000003,-0.0349180000000002
343.6000000000001,-0.03882
343.8,-0.0374770000000002
344.00000000000006,-0.0367380000000001
344.2,-0.0370700000000001
344.40000000000003,-0.036448
344.6000000000001,-0.0347300000000001
344.8,-0.036145
345.00000000000006,-0.0394210000000001
345.2,-0.042904
345.40000000000003,-0.0449350000000001
345.6000000000001,-0.045981
345.8,-0.0445440000000001
346.00000000000006,-0.0406760000000001
346.2,-0.0339930000000001
346.40000000000003,-0.0290020000000001
346.6000000000001,-0.0282650000000002
346.8,-0.030915
347.00000000000006,-0.0321660000000001
347.2,-0.0349080000000001
347.40000000000003,-0.036013
347.6000000000001,-0.0351290000000001
347.8,-0.0344360000000001
348.00000000000006,-0.0366000000000001
348.2,-0.037365
348.40000000000003,-0.039846
348.6000000000001,-0.0398200000000001
348.8,-0.038694
349.00000000000006,-0.0403730000000002
349.2,-0.042912
349.40000000000003,-0.04404
349.6000000000001,-0.045824
349.8,-0.0450290000000002
350.00000000000006,-0.041652
350.2,-0.0415320000000001
350.40000000000003,-0.0402200000000001
350.6000000000001,-0.0394000000000001
350.8,-0.0398180000000001
351.00000000000006,-0.04224
351.2,-0.042769
351.40000000000003,-0.0461960000000001
351.6000000000001,-0.0481470000000001
351.8,-0.05126
352.00000000000006,-0.0497290000000001
352.2,-0.0468210000000002
352.40000000000003,-0.0398630000000002
352.6000000000001,-0.0350840000000001
352.8,-0.0294590000000001
353.00000000000006,-0.028162
353.2,-0.0268210000000002
353.40000000000003,-0.0284140000000001
353.6000000000001,-0.031657
353.8,-0.035511
354.00000000000006,-0.0394070000000001
354.2,-0.04106
354.40000000000003,-0.044944
354.6000000000001,-0.046426
354.8,-0.0482570000000002
355.00000000000006,-0.0445440000000001
355.2,-0.0445190000000002
355.40000000000003,-0.0406730000000001
355.6000000000001,-0.0389970000000001
355.8,-0.038558
356.00000000000006,-0.0400660000000001
356.2,-0.038008
356.40000000000003,-0.039044
356.6000000000001,-0.040167
356.8,-0.0400450000000001
357.00000000000006,-0.0410570000000001
357.2,-0.0445410000000001
357.40000000000003,-0.0460250000000002
357.6000000000001,-0.0460910000000001
357.8,-0.0474640000000001
358.00000000000006,-0.048518
358.2,-0.049798
358.40000000000003,-0.0502840000000002
358.6000000000001,-0.049967
358.8,-0.0474430000000001
359.00000000000006,-0.047106
359.2,-0.0452260000000002
359.40000000000003,-0.043128
359.6000000000001,-0.042278
359.8,-0.0437670000000001
360.00000000000006,-0.0423900000000001
360.2,-0.0401310000000001
360.4,-0.0402770000000001
360.6000000000001,-0.039309
360.8,-0.038005
361.00000000000006,-0.037808
361.2,-0.0386540000000001
361.4,-0.0384390000000001
361.6000000000001,-0.039554
361.8,-0.0391730000000001
362.00000000000006,-0.038167
362.2,-0.0389350000000001
362.4,-0.0398040000000001
362.6000000000001,-0.0400690000000001
362.8,-0.0420280000000001
363.00000000000006,-0.0441010000000001
363.2,-0.0447080000000001
363.4,-0.044502
363.6000000000001,-0.0431750000000001
363.8,-0.0417210000000001
364.00000000000006,-0.0422300000000002
364.2,-0.0419070000000001
364.4,-0.04271
364.6000000000001,-0.044264
364.8,-0.0444680000000001
365.00000000000006,-0.0433860000000001
365.2,-0.043471
365.4,-0.043541
365.6000000000001,-0.0409000000000001
365.8,-0.0401330000000001
366.00000000000006,-0.0406140000000001
366.2,-0.0429110000000001
366.4,-0.043649
366.6000000000001,-0.0481170000000001
366.8,-0.0501410000000002
367.00000000000006,-0.050013
367.2,-0.048715
367.4,-0.0467320000000002
367.6000000000001,-0.044694
367.8,-0.044667
368.00000000000006,-0.0457830000000001
368.2,-0.0473560000000001
368.4,-0.050156
368.6000000000001,-0.0503070000000001
368.8,-0.046842
369.00000000000006,-0.04505
369.2,-0.0421010000000001
369.4,-0.0403690000000001
369.6000000000001,-0.039074
369.8,-0.040804
370.00000000000006,-0.0433540000000001
370.2,-0.0467820000000001
370.4,-0.0483070000000001
370.6000000000001,-0.047716
370.8,-0.046745
371.00000000000006,-0.0435390000000002
371.2,-0.0410210000000001
371.4,-0.0405440000000001
371.6000000000001,-0.0397390000000001
371.8,-0.038451
372.00000000000006,-0.0379170000000002
372.2,-0.036415
372.4,-0.033592
372.6000000000001,-0.035725
372.8,-0.0403550000000001
373.00000000000006,-0.0430840000000001
373.2,-0.0453800000000002
373.4,-0.049633
373.6000000000001,-0.0510350000000001
373.8,-0.048604
374.00000000000006,-0.0462740000000001
374.2,-0.0442330000000001
374.4,-0.0418670000000001
374.6000000000001,-0.040332
374.8,-0.0387190000000001
375.00000000000006,-0.038923
375.2,-0.0406470000000001
375.4,-0.0396360000000002
375.6000000000001,-0.038621
375.8,-0.0409380000000001
376.00000000000006,-0.0441440000000001
376.2,-0.0455970000000001
376.4,-0.0492910000000001
376.6000000000001,-0.0541260000000001
376.8,-0.0555100000000001
377.00000000000006,-0.053927
377.2,-0.051171
377.4,-0.048364
377.6000000000001,-0.047862
377.8,-0.0497800000000001
378.00000000000006,-0.0536990000000001
378.2,-0.0598230000000001
378.4,-0.06553
378.6000000000001,-0.066
378.8,-0.0633030000000001
379.00000000000006,-0.0588670000000002
379.2,-0.051968
379.4,-0.0456990000000001
379.6000000000001,-0.041638
379.8,-0.0389570000000001
380.00000000000006,-0.0386540000000001
380.2,-0.0415750000000001
380.4,-0.0433080000000001
380.6000000000001,-0.0441580000000001
380.8,-0.047576
381.00000000000006,-0.047968
381.2,-0.045927
381.4,-0.0470240000000001
381.6000000000001,-0.0475560000000001
381.8,-0.0465570000000001
382.00000000000006,-0.046515
382.2,-0.046497
382.4,-0.042253
382.6000000000001,-0.038693
382.8,-0.037859
383.00000000000006,-0.0384710000000001
383.2,-0.0395020000000001
383.4,-0.0435800000000001
383.6000000000001,-0.048467
383.8,-0.050062
384.00000000000006,-0.0525500000000001
384.2,-0.0541230000000001
384.4,-0.0535800000000001
384.6000000000001,-0.05502
384.8,-0.0564680000000001
385.00000000000006,-0.053881
385.2,-0.0501150000000001
385.4,-0.046248
385.6000000000001,-0.040675
385.8,-0.0379260000000001
386.00000000000006,-0.036504
386.2,-0.038677
386.4,-0.042874
386.6000000000001,-0.0431340000000002
386.8,-0.0418690000000001
387.00000000000006,-0.0433050000000001
387.2,-0.042966
387.4,-0.0421
387.6000000000001,-0.0455890000000001
387.8,-0.0495700000000001
388.00000000000006,-0.0495930000000002
388.2,-0.050532
388.4,-0.052173
388.6000000000001,-0.0529980000000001
388.8,-0.054232
389.00000000000006,-0.056084
389.2,-0.0580020000000001
389.4,-0.0591860000000001
389.6000000000001,-0.06135
389.8,-0.058151
390.00000000000006,-0.0552640000000002
390.2,-0.0529250000000001
390.4,-0.0522340000000001
390.6000000000001,-0.0482650000000002
390.8,-0.049455
391.00000000000006,-0.0502
391.2,-0.051133
391.4,-0.0497740000000002
391.6000000000001,-0.0519850000000001
391.8,-0.0517940000000001
392.00000000000006,-0.05261
392.2,-0.0494670000000001
392.4,-0.0477590000000001
392.6000000000001,-0.0476990000000001
392.8,-0.0477770000000001
393.00000000000006,-0.048108
393.2,-0.05203
393.4,-0.0533400000000001
393.6000000000001,-0.050823
393.8,-0.048659
394.00000000000006,-0.049206
394.2,-0.0478580000000001
394.4,-0.0484390000000001
394.6000000000001,-0.0483310000000001
394.8,-0.0479850000000001
395.00000000000006,-0.0455960000000001
395.2,-0.0462960000000001
395.4,-0.0449210000000002
395.6000000000001,-0.0433290000000001
395.8,-0.045376
396.00000000000006,-0.0479180000000001
396.2,-0.0492590000000001
396.4,-0.051385
396.6000000000001,-0.0546780000000002
396.8,-0.056016
397.00000000000006,-0.056019
397.2,-0.054624
397.4,-0.0536210000000001
397.6000000000001,-0.054364
397.8,-0.0539880000000001
398.00000000000006,-0.0538180000000001
398.2,-0.0540370000000001
398.4,-0.053827
398.6000000000001,-0.053533
398.8,-0.052685
399.00000000000006,-0.051633
399.2,-0.0495420000000002
399.4,-0.049625
399.6000000000001,-0.0462070000000001
399.8,-0.043498
400.00000000000006,-0.042672
400.2,-0.0439120000000001
400.4,-0.043881
400.6000000000001,-0.045876
400.8,-0.0483930000000001
401.00000000000006,-0.0492800000000002
401.2,-0.0487510000000002
401.4,-0.048686
401.6000000000001,-0.04915
401.8,-0.0503420000000001
402.00000000000006,-0.051862
402.2,-0.0531350000000001
402.4,-0.053655
402.6000000000001,-0.054324
402.8,-0.052721
403.00000000000006,-0.049525
403.2,-0.0466090000000001
403.4,-0.044043
403.6000000000001,-0.0428560000000002
403.8,-0.044178
404.00000000000006,-0.044445
404.2,-0.044491
404.4,-0.0458960000000001
404.6000000000001,-0.048353
404.8,-0.0498590000000001
405.00000000000006,-0.0542580000000001
405.2,-0.0592720000000002
405.4,-0.059692
405.6000000000001,-0.0579480000000001
405.8,-0.0548090000000001
406.00000000000006,-0.052022
406.2,-0.0492990000000002
406.4,-0.04895
406.6000000000001,-0.048621
406.8,-0.049112
407.00000000000006,-0.0503980000000001
407.2,-0.05282
407.4,-0.0546470000000001
407.6000000000001,-0.0560100000000001
407.8,-0.0568160000000002
408.00000000000006,-0.0570300000000001
408.2,-0.0572180000000002
408.4,-0.055385
408.6000000000001,-0.0536690000000001
408.8,-0.052259
409.00000000000006,-0.048675
409.2,-0.042518
409.4,-0.0386950000000001
409.6000000000001,-0.036996
409.8,-0.0361250000000001
410.00000000000006,-0.038877
410.2,-0.043833
410.4,-0.048313
410.6000000000001,-0.0509780000000001
410.8,-0.0523690000000001
411.00000000000006,-0.051444
411.2,-0.050818
411.4,-0.0537450000000001
411.6000000000001,-0.057047
411.8,-0.059382
412.00000000000006,-0.060483
412.2,-0.0594160000000001
412.4,-0.0569160000000001
412.6000000000001,-0.0518210000000001
412.8,-0.048267
413.00000000000006,-0.046864
413.2,-0.0486380000000001
413.4,-0.05
413.6000000000001,-0.05196
413.8,-0.055101
414.00000000000006,-0.0577640000000001
414.2,-0.0577880000000001
414.4,-0.058005
414.6000000000001,-0.060254
414.8,-0.059646
415.00000000000006,-0.0578560000000001
415.2,-0.0570920000000001
415.4,-0.0551290000000002
415.6000000000001,-0.0527630000000001
415.8,-0.0530400000000002
416.00000000000006,-0.0532880000000002
416.2,-0.0530570000000001
416.4,-0.051706
416.6000000000001,-0.0495910000000001
416.8,-0.048281
417.00000000000006,-0.0481570000000002
417.2,-0.0476470000000002
417.4,-0.0491370000000002
417.6000000000001,-0.051331
417.8,-0.049641
418.00000000000006,-0.0486900000000001
418.2,-0.0492210000000001
418.4,-0.0483380000000002
418.6000000000001,-0.0465730000000002
418.8,-0.045957
419.00000000000006,-0.0444620000000002
419.2,-0.0428080000000001
419.4,-0.0436820000000002
419.6000000000001,-0.0480310000000001
419.8,-0.0526740000000001
420.00000000000006,-0.0554370000000001
420.2,-0.057328
420.4,-0.0575500000000002
420.6000000000001,-0.055565
420.8,-0.053784
421.00000000000006,-0.0528680000000001
421.2,-0.0525760000000001
421.4,-0.0531370000000002
421.6000000000001,-0.0518010000000002
421.8,-0.050275
422.00000000000006,-0.0529620000000001
422.2,-0.05346
422.4,-0.0528760000000001
422.6000000000001,-0.055619
422.8,-0.059857
423.00000000000006,-0.058704
423.2,-0.0606580000000001
423.4,-0.0599580000000001
423.6000000000001,-0.0597470000000002
423.8,-0.056756
424.00000000000006,-0.0553450000000002
424.2,-0.052275
424.4,-0.0537780000000001
424.6000000000001,-0.050686
424.8,-0.0499390000000001
425.00000000000006,-0.0491190000000001
425.2,-0.048713
425.4,-0.0480550000000001
425.6000000000001,-0.0507860000000002
425.8,-0.053528
426.00000000000006,-0.0558040000000001
426.2,-0.0582790000000001
426.4,-0.0591290000000002
426.6000000000001,-0.055207
426.8,-0.0536720000000001
427.00000000000006,-0.0533880000000002
427.2,-0.0522470000000001
427.4,-0.0523310000000001
427.6000000000001,-0.0585470000000001
427.8,-0.062186
428.00000000000006,-0.064643
428.2,-0.0647280000000001
428.4,-0.063606
428.6000000000001,-0.060785
428.8,-0.0571620000000001
429.00000000000006,-0.0524310000000001
429.2,-0.0510050000000001
429.4,-0.0506140000000001
429.6000000000001,-0.049328
429.8,-0.0503710000000001
430.00000000000006,-0.0528520000000001
430.2,-0.0549110000000001
430.4,-0.0569110000000001
430.6000000000001,-0.0581290000000001
430.8,-0.0560660000000001
431.00000000000006,-0.053946
431.2,-0.054089
431.4,-0.0549710000000001
431.6000000000001,-0.0538280000000002
431.8,-0.053403
432.00000000000006,-0.0555400000000001
432.2,-0.055206
432.4,-0.0520950000000002
432.6000000000001,-0.052105
432.8,-0.050758
433.00000000000006,-0.049957
433.2,-0.0511730000000001
433.4,-0.053506
433.6000000000001,-0.0552030000000001
433.8,-0.058931
434.00000000000006,-0.058472
434.2,-0.0563790000000001
434.4,-0.0551970000000001
434.6000000000001,-0.053792
434.8,-0.0529480000000002
435.00000000000006,-0.0548820000000001
435.2,-0.0543710000000001
435.4,-0.0520870000000002
435.6000000000001,-0.0510860000000001
435.8,-0.0520410000000002
436.00000000000006,-0.0511650000000001
436.2,-0.053914
436.4,-0.0556890000000001
436.6000000000001,-0.054834
436.8,-0.0535120000000002
437.00000000000006,-0.055047
437.2,-0.054461
437.4,-0.0558980000000002
437.6000000000001,-0.0595500000000002
437.8,-0.0578090000000002
438.00000000000006,-0.0538100000000001
438.2,-0.0503070000000001
438.4,-0.0476910000000001
438.6000000000001,-0.045042
438.8,-0.047363
439.00000000000006,-0.0498500000000001
439.2,-0.053962
439.4,-0.0599260000000001
439.6000000000001,-0.0655700000000001
439.8,-0.0671950000000001
440.00000000000006,-0.0700910000000001
440.2,-0.07108
440.4,-0.0676190000000001
440.6000000000001,-0.0637430000000001
440.8,-0.06092
441.00000000000006,-0.0579710000000002
441.2,-0.0582390000000001
441.4,-0.0597510000000001
441.6000000000001,-0.0611110000000001
441.8,-0.0637200000000002
442.00000000000006,-0.0642040000000001
442.2,-0.060845
442.4,-0.058815
442.6000000000001,-0.0570030000000001
442.8,-0.0554240000000001
443.00000000000006,-0.0536340000000001
443.2,-0.0528110000000001
443.4,-0.048877
443.6000000000001,-0.045752
443.8,-0.043657
444.00000000000006,-0.0431940000000001
444.2,-0.044753
444.4,-0.048542
444.6000000000001,-0.0500990000000001
444.8,-0.051225
445.00000000000006,-0.051206
445.2,-0.0483770000000001
445.4,-0.046604
445.6000000000001,-0.0500090000000001
445.8,-0.0519090000000002
446.00000000000006,-0.0511430000000001
446.2,-0.0513700000000001
446.4,-0.0519820000000001
446.6000000000001,-0.0510810000000001
446.8,-0.0504030000000002
447.00000000000006,-0.052632
447.2,-0.0556420000000001
447.4,-0.0582790000000001
447.6000000000001,-0.0593650000000001
447.8,-0.0582470000000001
448.00000000000006,-0.0571430000000001
448.2,-0.0561420000000001
448.4,-0.0573030000000001
448.6000000000001,-0.0556240000000001
448.8,-0.056356
449.00000000000006,-0.0573840000000001
449.2,-0.0580770000000001
449.4,-0.0545080000000002
449.6000000000001,-0.0550860000000001
449.8,-0.0579720000000001
450.00000000000006,-0.060135
450.2,-0.057709
450.4,-0.0566760000000001
450.6000000000001,-0.0566140000000001
450.8,-0.053484
451.00000000000006,-0.0502820000000001
451.2,-0.0494970000000001
451.4,-0.0503150000000001
451.6000000000001,-0.0502440000000001
451.8,-0.053657
452.00000000000006,-0.0544310000000001
452.2,-0.058713
452.4,-0.059862
452.6000000000001,-0.060926
452.8,-0.0579440000000002
453.00000000000006,-0.0588320000000002
453.2,-0.0578050000000001
453.4,-0.057371
453.6000000000001,-0.0572670000000001
453.8,-0.0587790000000001
454.00000000000006,-0.0571760000000001
454.2,-0.0563920000000002
454.4,-0.0566030000000001
454.6000000000001,-0.055601
454.8,-0.055422
455.00000000000006,-0.058613
455.2,-0.060345
455.4,-0.0611940000000001
455.6000000000001,-0.062035
455.8,-0.061209
456.00000000000006,-0.059082
456.2,-0.0591910000000002
456.4,-0.060572
456.6000000000001,-0.0631380000000001
456.8,-0.0654610000000002
457.00000000000006,-0.068068
457.2,-0.068651
457.4,-0.069471
457.6000000000001,-0.067253
457.8,-0.0648250000000001
458.00000000000006,-0.0606090000000001
458.2,-0.0556610000000001
458.4,-0.0517100000000001
458.6000000000001,-0.05102
458.8,-0.0525060000000001
459.00000000000006,-0.056067
459.2,-0.058934
459.4,-0.0589330000000001
459.6000000000001,-0.058132
459.8,-0.0585190000000002
460.00000000000006,-0.0591080000000001
460.2,-0.0589670000000002
460.4,-0.0603060000000001
460.6000000000001,-0.061952
460.8,-0.061072
461.00000000000006,-0.0611460000000001
461.2,-0.0627540000000002
461.4,-0.061304
461.6000000000001,-0.0587490000000001
461.8,-0.0592560000000002
462.00000000000006,-0.0586890000000002
462.2,-0.0597750000000001
462.4,-0.0621040000000001
462.6000000000001,-0.0652270000000001
462.8,-0.0653240000000001
463.00000000000006,-0.0659370000000001
463.2,-0.063768
463.4,-0.06369
463.6000000000001,-0.062653
463.8,-0.0613970000000001
464.00000000000006,-0.0595240000000001
464.2,-0.060726
464.4,-0.0615720000000001
464.6000000000001,-0.0608300000000001
464.8,-0.061147
465.00000000000006,-0.060594
465.2,-0.0602260000000001
465.4,-0.058149
465.6000000000001,-0.0562800000000001
465.8,-0.0543650000000002
466.00000000000006,-0.0530270000000001
466.2,-0.054534
466.4,-0.0550910000000002
466.6000000000001,-0.054599
466.8,-0.0556830000000001
467.00000000000006,-0.057403
467.2,-0.053973
467.4,-0.0535230000000002
467.6000000000001,-0.056772
467.8,-0.0580040000000001
468.00000000000006,-0.05752
468.2,-0.058235
468.4,-0.059976
468.6000000000001,-0.0614380000000001
468.8,-0.0622260000000001
469.00000000000006,-0.0638800000000001
469.2,-0.0633160000000001
469.4,-0.063034
469.6000000000001,-0.062499
469.8,-0.065331
470.00000000000006,-0.0670590000000002
470.2,-0.069946
470.4,-0.06956
470.6000000000001,-0.069018
470.8,-0.065212
471.00000000000006,-0.062232
471.2,-0.059126
471.4,-0.057628
471.6000000000001,-0.059474
471.8,-0.0626570000000001
472.00000000000006,-0.063746
472.2,-0.0639170000000002
472.4,-0.062934
472.6000000000001,-0.0581580000000001
472.8,-0.0553670000000001
473.00000000000006,-0.056146
473.2,-0.0571480000000002
473.4,-0.0579230000000001
473.6000000000001,-0.0593030000000001
473.8,-0.056291
474.00000000000006,-0.054189
474.2,-0.0554130000000001
474.4,-0.0580880000000001
474.6000000000001,-0.058394
474.8,-0.061555
475.00000000000006,-0.0641330000000002
475.2,-0.0653640000000002
475.4,-0.0666410000000001
475.6000000000001,-0.06884
475.8,-0.068429
476.00000000000006,-0.066802
476.2,-0.06623
476.4,-0.0631140000000001
476.6000000000001,-0.05949
476.8,-0.0582530000000001
477.00000000000006,-0.057458
477.2,-0.0555990000000001
477.4,-0.0561340000000001
477.6000000000001,-0.056799
477.8,-0.0578830000000001
478.00000000000006,-0.058634
478.2,-0.0593300000000001
478.4,-0.0602530000000001
478.6000000000001,-0.0614380000000001
478.8,-0.0598900000000002
479.00000000000006,-0.057058
479.2,-0.0540980000000002
479.4,-0.050632
479.6000000000001,-0.0477850000000001
479.8,-0.048119
480.00000000000006,-0.0498610000000001
480.2,-0.0515810000000001
480.4,-0.0526160000000002
480.6000000000001,-0.0538670000000001
480.8,-0.054459
481.00000000000006,-0.055811
481.2,-0.058705
481.4,-0.060637
481.6000000000001,-0.063142
481.8,-0.066022
482.00000000000006,-0.068615
482.2,-0.066891
482.4,-0.0685270000000002
482.6000000000001,-0.067754
482.8,-0.0651130000000002
483.00000000000006,-0.0620250000000002
483.2,-0.062691
483.4,-0.0636620000000001
483.6000000000001,-0.064721
483.8,-0.065531
484.00000000000006,-0.0651650000000001
484.2,-0.064184
484.4,-0.062308
484.6000000000001,-0.062089
484.8,-0.0628200000000001
485.00000000000006,-0.065598
485.2,-0.0672180000000002
485.4,-0.0688360000000001
485.6000000000001,-0.069566
485.8,-0.0713680000000001
486.00000000000006,-0.069808
486.2,-0.0695540000000001
486.4,-0.0670140000000001
486.6000000000001,-0.0676970000000001
486.8,-0.0701530000000001
487.00000000000006,-0.074332
487.2,-0.0756160000000001
487.4,-0.077401
487.6000000000001,-0.074945
487.8,-0.0703360000000001
488.00000000000006,-0.065655
488.2,-0.063498
488.4,-0.0592990000000002
488.6000000000001,-0.056837
488.8,-0.0534460000000001
489.00000000000006,-0.0526710000000001
489.2,-0.052864
489.4,-0.0568000000000001
489.6000000000001,-0.0613570000000001
489.8,-0.0652430000000001
490.00000000000006,-0.065158
490.2,-0.065317
490.4,-0.0648440000000001
490.6000000000001,-0.065339
490.8,-0.065879
491.00000000000006,-0.0702500000000001
491.2,-0.071128
491.4,-0.069406
491.6000000000001,-0.0659470000000002
491.8,-0.062926
492.00000000000006,-0.0586120000000001
492.2,-0.0582010000000001
492.4,-0.059476
492.6000000000001,-0.061269
492.8,-0.0614860000000001
493.00000000000006,-0.0631570000000001
493.2,-0.0632780000000001
493.4,-0.0624500000000001
493.6000000000001,-0.0606440000000001
493.8,-0.0606900000000001
494.00000000000006,-0.0587330000000001
494.2,-0.054653
494.4,-0.052483
494.6000000000001,-0.0543380000000002
494.8,-0.058078
495.00000000000006,-0.0627090000000001
495.2,-0.0687460000000002
495.4,-0.0740100000000001
495.6000000000001,-0.074618
495.8,-0.075452
496.00000000000006,-0.0735480000000001
496.2,-0.072281
496.4,-0.0689350000000001
496.6000000000001,-0.0694670000000001
496.8,-0.0676910000000001
497.00000000000006,-0.0685740000000001
497.2,-0.0689840000000001
497.4,-0.0709950000000001
497.6000000000001,-0.0686140000000001
497.8,-0.0675260000000002
498.00000000000006,-0.0670090000000001
498.2,-0.0674590000000001
498.4,-0.0684710000000001
498.6000000000001,-0.0721210000000001
498.8,-0.072008
499.00000000000006,-0.072143
499.2,-0.072599
499.4,-0.072791
499.6000000000001,-0.0715020000000001
499.8,-0.0713970000000001
500.00000000000006,-0.069968
500.2,-0.0691940000000002
500.4,-0.0698560000000001
500.6000000000001,-0.0696610000000002
500.8,-0.0719640000000001
501.00000000000006,-0.0742140000000002
501.2,-0.07383
501.4,-0.070354
501.6000000000001,-0.0686390000000001
501.8,-0.0645540000000002
502.00000000000006,-0.060993
502.2,-0.060513
502.4,-0.0614150000000002
502.6000000000001,-0.0625150000000001
502.8,-0.0660980000000002
503.00000000000006,-0.0707520000000001
503.2,-0.0724220000000002
503.4,-0.0742
503.6000000000001,-0.074435
503.8,-0.073509
504.00000000000006,-0.0714830000000001
504.2,-0.071666
504.4,-0.0704500000000001
504.6000000000001,-0.0696070000000002
504.8,-0.0694920000000001
505.00000000000006,-0.068421
505.2,-0.0665280000000001
505.4,-0.0661500000000001
505.6000000000001,-0.066343
505.8,-0.064729
506.00000000000006,-0.0636510000000001
506.2,-0.0630920000000001
506.4,-0.0626120000000001
506.6000000000001,-0.064945
506.8,-0.065725
507.00000000000006,-0.066273
507.2,-0.0682180000000001
507.4,-0.069811
507.6000000000001,-0.0678580000000002
507.8,-0.069425
508.00000000000006,-0.0719200000000002
508.2,-0.069973
508.4,-0.069501
508.6000000000001,-0.068621
508.8,-0.06712
509.0,-0.0654190000000001
509.2000000000001,-0.0651320000000001
509.4000000000001,-0.064605
509.60000000000014,-0.066688
509.8,-0.0698690000000001
510.0,-0.0682090000000001
510.2000000000001,-0.0683710000000001
510.4000000000001,-0.0674270000000001
510.60000000000014,-0.06448
510.8,-0.060151
511.0,-0.0622880000000001
511.2000000000001,-0.065447
511.4000000000001,-0.0697700000000001
511.60000000000014,-0.074246
511.8,-0.0791520000000001
512.0,-0.082316
512.2,-0.0827930000000001
512.4000000000001,-0.0779930000000002
512.6000000000001,-0.0732110000000001
512.8,-0.0709000000000001
513.0,-0.0694910000000001
513.2,-0.065433
513.4000000000001,-0.0668550000000001
513.6000000000001,-0.0676690000000002
513.8,-0.0672650000000001
514.0,-0.066715
514.2,-0.071612
514.4000000000001,-0.0748570000000001
514.6000000000001,-0.0790160000000002
514.8,-0.0806140000000001
515.0,-0.078251
515.2,-0.0734350000000001
515.4000000000001,-0.0695990000000001
515.6000000000001,-0.0668060000000001
515.8,-0.0653400000000001
516.0,-0.0661850000000001
516.2,-0.0672760000000001
516.4000000000001,-0.068656
516.6000000000001,-0.070119
516.8,-0.0688790000000001
517.0,-0.0686230000000001
517.2,-0.068575
517.4000000000001,-0.0688950000000001
517.6000000000001,-0.0687930000000001
517.8,-0.0698820000000002
518.0,-0.0699120000000002
518.2,-0.0692750000000002
518.4000000000001,-0.0690900000000001
518.6000000000001,-0.0683530000000001
518.8,-0.0677850000000002
519.0,-0.067166
519.2,-0.0679210000000001
519.4000000000001,-0.0682200000000001
519.6000000000001,-0.0699400000000001
519.8,-0.0704500000000001
520.0,-0.0706930000000001
520.2,-0.0694340000000002
520.4000000000001,-0.070408
520.6000000000001,-0.0705820000000001
520.8,-0.0739930000000002
521.0,-0.0775860000000001
521.2,-0.0803220000000002
521.4000000000001,-0.0780370000000001
521.6000000000001,-0.077091
521.8,-0.0780850000000001
522.0,-0.078915
522.2,-0.077504
522.4000000000001,-0.074964
522.6000000000001,-0.07217
522.8,-0.0678860000000001
523.0,-0.0650870000000001
523.2,-0.0654530000000002
523.4000000000001,-0.0689900000000001
523.6000000000001,-0.0700360000000002
523.8,-0.06966
524.0,-0.0687460000000002
524.2,-0.068257
524.4000000000001,-0.0663030000000002
524.6000000000001,-0.06742
524.8,-0.069498
525.0,-0.068999
525.2,-0.0681210000000001
525.4000000000001,-0.0698280000000002
525.6000000000001,-0.0692750000000002
525.8,-0.0673720000000002
526.0,-0.0676960000000002
526.2,-0.0682280000000001
526.4000000000001,-0.068877
526.6000000000001,-0.0691760000000001
526.8,-0.0706350000000002
527.0,-0.0726680000000001
527.2,-0.0765500000000001
527.4000000000001,-0.078438
527.6000000000001,-0.0778450000000001
527.8,-0.0754340000000002
528.0,-0.0728080000000002
528.2,-0.0718100000000001
528.4000000000001,-0.0700560000000001
528.6000000000001,-0.0682830000000001
528.8,-0.068572
529.0,-0.070016
529.2,-0.069039
529.4000000000001,-0.06952
529.6000000000001,-0.0741520000000002
529.8,-0.0740930000000001
530.0,-0.071158
530.2,-0.0672430000000001
530.4000000000001,-0.065274
530.6000000000001,-0.062561
530.8,-0.063476
531.0,-0.064559
531.2,-0.065512
531.4000000000001,-0.0632160000000001
531.6000000000001,-0.0621550000000001
531.8,-0.0606330000000001
532.0,-0.0607780000000002
532.2,-0.0631140000000001
532.4000000000001,-0.0669250000000001
532.6000000000001,-0.067835
532.8,-0.0671480000000002
533.0,-0.067028
533.2,-0.0650030000000001
533.4000000000001,-0.0634810000000001
533.6000000000001,-0.0622410000000002
533.8,-0.061789
534.0,-0.0593620000000001
534.2,-0.057984
534.4000000000001,-0.0591840000000001
534.6000000000001,-0.0618
534.8,-0.066756
535.0,-0.0711440000000001
535.2,-0.0755100000000001
535.4000000000001,-0.0772600000000001
535.6000000000001,-0.0777430000000001
535.8,-0.0751330000000001
536.0,-0.073906
536.2,-0.070389
536.4000000000001,-0.0666330000000001
536.6000000000001,-0.0657880000000001
536.8,-0.065255
537.0,-0.0647950000000001
537.2,-0.065242
537.4000000000001,-0.063962
537.6000000000001,-0.0622170000000001
537.8,-0.0651290000000002
538.0,-0.0663010000000001
538.2,-0.065663
538.4000000000001,-0.0653650000000001
538.6000000000001,-0.0638290000000001
538.8,-0.061314
539.0,-0.0642360000000001
539.2,-0.0660720000000001
539.4000000000001,-0.068354
539.6000000000001,-0.069879
539.8,-0.069069
540.0,-0.0646660000000001
540.2,-0.064105
540.4000000000001,-0.064791
540.6000000000001,-0.0663710000000001
540.8,-0.067768
541.0,-0.0689250000000001
541.2,-0.0682800000000001
541.4000000000001,-0.0689950000000001
541.6000000000001,-0.0703120000000001
541.8,-0.0722720000000001
542.0,-0.0736750000000001
542.2,-0.076054
542.4000000000001,-0.075981
542.6000000000001,-0.076162
542.8,-0.0766770000000001
543.0,-0.0759740000000002
543.2,-0.076329
543.4000000000001,-0.0774920000000001
543.6000000000001,-0.077663
543.8,-0.0762310000000001
544.0,-0.0768080000000002
544.2,-0.075846
544.4000000000001,-0.0758550000000002
544.6000000000001,-0.0765880000000001
544.8,-0.0760050000000001
545.0,-0.0742610000000001
545.2,-0.075628
545.4000000000001,-0.0723140000000002
545.6000000000001,-0.0672650000000001
545.8,-0.067123
546.0,-0.0674510000000001
546.2,-0.064621
546.4000000000001,-0.0672490000000001
546.6000000000001,-0.072184
546.8,-0.0742690000000001
547.0,-0.0758350000000001
547.2,-0.0797340000000002
547.4000000000001,-0.08064
547.6000000000001,-0.07895
547.8,-0.0779050000000001
548.0,-0.0782880000000001
548.2,-0.076705
548.4000000000001,-0.074969
548.6000000000001,-0.0740770000000001
548.8,-0.0731870000000001
549.0,-0.0728520000000001
549.2,-0.0710270000000001
549.4000000000001,-0.069196
549.6000000000001,-0.0673270000000001
549.8,-0.069099
550.0,-0.070445
550.2,-0.0731410000000001
550.4000000000001,-0.0743760000000002
550.6000000000001,-0.075439
550.8,-0.0723990000000001
551.0,-0.0689760000000001
551.2,-0.0665310000000001
551.4000000000001,-0.067539
551.6000000000001,-0.068076
551.8,-0.070016
552.0,-0.0706220000000001
552.2,-0.070661
552.4000000000001,-0.072081
552.6000000000001,-0.0740610000000001
552.8,-0.077037
553.0,-0.0816540000000001
553.2,-0.0814020000000002
553.4000000000001,-0.080697
553.6000000000001,-0.079549
553.8,-0.0744450000000001
554.0,-0.070945
554.2,-0.073142
554.4000000000001,-0.074351
554.6000000000001,-0.0757430000000001
554.8,-0.0760010000000002
555.0,-0.0748360000000001
555.2,-0.0765460000000002
555.4000000000001,-0.07678
555.6000000000001,-0.074975
555.8,-0.075514
556.0,-0.0749510000000002
556.2,-0.0713780000000001
556.4000000000001,-0.070475
556.6000000000001,-0.070923
556.8,-0.07162
557.0,-0.074794
557.2,-0.0765120000000001
557.4000000000001,-0.0751970000000001
557.6000000000001,-0.0739470000000002
557.8,-0.07464
558.0,-0.0733750000000001
558.2,-0.0727030000000001
558.4000000000001,-0.0712560000000002
558.6000000000001,-0.068783
558.8,-0.065363
559.0,-0.0647600000000001
559.2,-0.0636320000000001
559.4000000000001,-0.0624660000000001
559.6000000000001,-0.063922
559.8,-0.0670060000000001
560.0,-0.069085
560.2,-0.0714160000000001
560.4000000000001,-0.071841
560.6000000000001,-0.0728490000000001
560.8,-0.07532
561.0,-0.0755540000000001
561.2,-0.075209
561.4000000000001,-0.07718
561.6000000000001,-0.0789840000000001
561.8,-0.0727310000000001
562.0,-0.0683880000000001
562.2,-0.0649520000000001
562.4000000000001,-0.0633570000000001
562.6000000000001,-0.063844
562.8,-0.0685070000000001
563.0,-0.072467
563.2,-0.0770320000000002
563.4000000000001,-0.081774
563.6000000000001,-0.0799510000000001
563.8,-0.078524
564.0,-0.0777400000000001
564.2,-0.0753680000000001
564.4000000000001,-0.0733020000000002
564.6000000000001,-0.074767
564.8,-0.074732
565.0,-0.0715510000000001
565.2,-0.0698180000000001
565.4000000000001,-0.068405
565.6000000000001,-0.0679930000000001
565.8,-0.0692320000000001
566.0,-0.0711790000000001
566.2,-0.0746500000000001
566.4000000000001,-0.0772210000000002
566.6000000000001,-0.0780130000000001
566.8,-0.0763610000000001
567.0,-0.0796100000000001
567.2,-0.0798500000000002
567.4000000000001,-0.0794730000000001
567.6000000000001,-0.0781800000000001
567.8,-0.0790730000000001
568.0,-0.076497
568.2,-0.07444
568.4000000000001,-0.074022
568.6000000000001,-0.076813
568.8,-0.0789590000000002
569.0,-0.0776590000000001
569.2,-0.077787
569.4000000000001,-0.0773370000000002
569.6000000000001,-0.076249
569.8,-0.0745880000000001
570.0,-0.0758340000000001
570.2,-0.0773020000000002
570.4000000000001,-0.0785330000000001
570.6000000000001,-0.0772160000000001
570.8000000000002,-0.0792330000000001
571.0,-0.080724
571.2,-0.07898
571.4000000000001,-0.076302
571.6000000000001,-0.073258
571.8000000000002,-0.069663
572.0,-0.0680750000000001
572.2,-0.069862
572.4000000000001,-0.072753
572.6000000000001,-0.0774750000000001
572.8000000000002,-0.080097
573.0,-0.0807810000000002
573.2,-0.080159
573.4000000000001,-0.0800510000000001
573.6000000000001,-0.080297
573.8000000000002,-0.081263
574.0,-0.081728
574.2,-0.0828840000000001
574.4000000000001,-0.0830840000000001
574.6000000000001,-0.0840340000000001
574.8000000000002,-0.084224
575.0,-0.085744
575.2,-0.0865980000000001
575.4000000000001,-0.086011
575.6000000000001,-0.0848280000000001
575.8000000000002,-0.0847350000000002
576.0,-0.083058
576.2,-0.081193
576.4000000000001,-0.0824660000000001
576.6000000000001,-0.0825870000000001
576.8000000000002,-0.0822470000000001
577.0,-0.0825060000000001
577.2,-0.0826570000000002
577.4000000000001,-0.0810860000000002
577.6000000000001,-0.0802820000000001
577.8000000000002,-0.0789240000000002
578.0,-0.076213
578.2,-0.074937
578.4000000000001,-0.0707930000000001
578.6000000000001,-0.068011
578.8000000000002,-0.066211
579.0,-0.066362
579.2,-0.064786
579.4000000000001,-0.0690060000000001
579.6000000000001,-0.071916
579.8000000000002,-0.0742260000000001
580.0,-0.077512
580.2,-0.083528
580.4000000000001,-0.0844900000000001
580.6000000000001,-0.0850110000000001
580.8000000000002,-0.086977
581.0,-0.087042
581.2,-0.084135
581.4000000000001,-0.08437
581.6000000000001,-0.0839750000000001
581.8000000000002,-0.0809660000000001
582.0,-0.079134
582.2,-0.0782710000000002
582.4000000000001,-0.075744
582.6000000000001,-0.076265
582.8000000000002,-0.073693
583.0,-0.071468
583.2,-0.071717
583.4000000000001,-0.0748390000000001
583.6000000000001,-0.0763330000000002
583.8000000000002,-0.079315
584.0,-0.083126
584.2,-0.0842870000000002
584.4000000000001,-0.082848
584.6000000000001,-0.0790810000000001
584.8000000000002,-0.078551
585.0,-0.077425
585.2,-0.0794570000000001
585.4000000000001,-0.079722
585.6000000000001,-0.081096
585.8000000000002,-0.0824220000000002
586.0,-0.0807120000000001
586.2,-0.0762170000000002
586.4000000000001,-0.0751210000000002
586.6000000000001,-0.0746660000000001
586.8000000000002,-0.0732990000000002
587.0,-0.0745200000000001
587.2,-0.07515
587.4000000000001,-0.0739720000000001
587.6000000000001,-0.072162
587.8000000000002,-0.0722820000000001
588.0,-0.0707710000000001
588.2,-0.072022
588.4000000000001,-0.074038
588.6000000000001,-0.0759660000000002
588.8000000000002,-0.0764250000000001
589.0,-0.078543
589.2,-0.077763
589.4000000000001,-0.0747890000000002
589.6000000000001,-0.0712650000000001
589.8000000000002,-0.0680720000000001
590.0,-0.066335
590.2,-0.066834
590.4000000000001,-0.06966
590.6000000000001,-0.074683
590.8000000000002,-0.0782250000000002
591.0,-0.0795960000000002
591.2,-0.0802060000000002
591.4000000000001,-0.0809710000000001
591.6000000000001,-0.078999
591.8000000000002,-0.0784740000000001
592.0,-0.0799130000000001
592.2,-0.078119
592.4000000000001,-0.07515
592.6000000000001,-0.074346
592.8000000000002,-0.0724420000000001
593.0,-0.0718820000000002
593.2,-0.0748510000000002
593.4000000000001,-0.0786820000000001
593.6000000000001,-0.080867
593.8000000000002,-0.0856620000000001
594.0,-0.086594
594.2,-0.0851480000000002
594.4000000000001,-0.082478
594.6000000000001,-0.079984
594.8000000000002,-0.075625
595.0,-0.0754460000000001
595.2,-0.075757
595.4000000000001,-0.078394
595.6000000000001,-0.0814620000000001
595.8000000000002,-0.0842470000000001
596.0,-0.082616
596.2,-0.082772
