Time (s),Shift (nm)
0.0,0.0
0.1999999999999886,0.0026569999999999
0.4000000000000341,0.0041629999999999
0.6000000000000227,0.0048149999999997
0.8000000000000114,0.0058129999999998
1.0,0.0054869999999997
1.1999999999999886,0.0036969999999998
1.400000000000034,0.0027169999999998
1.6000000000000227,0.0019029999999999
1.8000000000000114,0.0016919999999998
2.0,0.0034309999999999
2.1999999999999886,0.0053169999999997
2.400000000000034,0.0056089999999999
2.6000000000000227,0.0050879999999999
2.800000000000012,0.0046019999999999
3.0,0.0041299999999999
3.1999999999999886,0.0046789999999998
3.400000000000034,0.0053299999999998
3.6000000000000227,0.0068179999999999
3.8000000000000114,0.0068739999999998
4.0,0.0074599999999998
4.199999999999989,0.0072309999999999
4.400000000000034,0.0078409999999999
4.600000000000023,0.0086239999999999
4.800000000000011,0.0082239999999997
5.0,0.0069819999999998
5.199999999999989,0.0044109999999999
5.400000000000034,0.0027949999999998
5.600000000000023,0.0007399999999999
5.800000000000011,0.0003309999999998
6.0,-0.0005600000000001
6.199999999999989,-4.600000000021254e-05
6.400000000000034,-0.0015960000000001
6.600000000000023,-0.0025920000000001
6.800000000000011,-0.00415
7.0,-0.002585
7.199999999999989,-0.001648
7.400000000000034,-0.000976
7.600000000000023,0.0014689999999999
7.800000000000011,0.0024359999999998
8.0,0.0021839999999999
8.199999999999989,0.0015049999999998
8.400000000000034,0.0030379999999998
8.600000000000023,0.0028439999999998
8.800000000000011,0.0041969999999997
9.0,0.0046959999999998
9.199999999999989,0.0057769999999999
9.400000000000034,0.0068249999999998
9.600000000000025,0.0074789999999997
9.800000000000011,0.0071749999999999
10.0,0.0060219999999999
10.199999999999989,0.0061309999999998
10.400000000000034,0.0026399999999999
10.600000000000025,0.0001919999999999
10.800000000000011,-0.0011320000000001
11.0,-0.002291
11.199999999999989,-0.0050720000000001
11.400000000000034,-0.005039
11.600000000000025,-0.00442
11.800000000000011,-0.004426
12.0,-0.0042630000000001
12.199999999999989,-0.00391
12.400000000000034,-0.0020550000000001
12.600000000000025,-0.000672
12.800000000000011,0.0012939999999999
13.0,0.0038559999999998
13.199999999999989,0.0077189999999998
13.400000000000034,0.0091989999999999
13.600000000000025,0.0098339999999998
13.800000000000011,0.0100339999999998
14.0,0.0091459999999998
14.199999999999989,0.0062349999999999
14.400000000000034,0.0041629999999999
14.600000000000025,0.0026699999999999
14.800000000000011,0.0016029999999997
15.0,0.0013149999999999
15.199999999999989,0.0017959999999999
15.400000000000034,0.0020889999999997
15.600000000000025,0.0005689999999998
15.800000000000011,2.999999999997449e-05
16.0,0.0006969999999999
16.19999999999999,0.0020889999999997
16.400000000000034,0.0021819999999999
16.600000000000023,0.0039639999999998
16.80000000000001,0.0035359999999999
17.0,0.0017949999999999
17.19999999999999,0.0003679999999999
17.400000000000034,0.0013739999999999
17.600000000000023,-0.0006730000000001
17.80000000000001,-0.0015820000000001
18.0,-0.0011320000000001
18.19999999999999,-0.0022300000000001
18.400000000000038,-0.003357
18.600000000000023,-0.001452
18.80000000000001,0.0025649999999999
19.0,0.0049629999999998
19.19999999999999,0.0078379999999997
19.400000000000038,0.0080179999999998
19.600000000000023,0.0077049999999998
19.80000000000001,0.0065009999999998
20.0,0.0050499999999999
20.19999999999999,0.0026059999999998
20.400000000000038,0.0006419999999998
20.600000000000023,-0.0003000000000001
20.80000000000001,-0.0026300000000001
21.0,-0.0030690000000002
21.19999999999999,-0.0020790000000001
21.400000000000038,0.0007159999999999
21.600000000000023,0.0008999999999999
21.80000000000001,0.0015659999999999
22.0,0.0011549999999997
22.19999999999999,0.0028619999999999
22.400000000000038,0.0023699999999999
22.600000000000023,0.0010909999999999
22.80000000000001,-0.000574
23.0,-0.00268
23.19999999999999,-0.0048920000000001
23.400000000000038,-0.0060950000000001
23.600000000000023,-0.0039310000000001
23.80000000000001,-0.001384
24.0,0.0028449999999999
24.19999999999999,0.0068029999999998
24.400000000000038,0.0099519999999999
24.600000000000023,0.0107919999999999
24.80000000000001,0.0111169999999998
25.0,0.0104339999999998
25.19999999999999,0.0068119999999998
25.400000000000038,0.0063779999999999
25.600000000000023,0.0055329999999997
25.80000000000001,0.0036379999999998
26.0,0.0019569999999999
26.19999999999999,3.2999999999949736e-05
26.400000000000038,-0.004134
26.600000000000023,-0.0060470000000001
26.80000000000001,-0.0034400000000001
27.0,-0.00055
27.19999999999999,0.0024059999999999
27.400000000000038,0.0032979999999998
27.600000000000023,0.0036609999999999
27.80000000000001,0.0015869999999997
28.0,-4.8000000000048e-05
28.19999999999999,-0.0006680000000001
28.400000000000038,0.0010109999999998
28.600000000000023,0.0024289999999997
28.80000000000001,0.0027629999999998
29.0,0.0032519999999998
29.19999999999999,0.0050629999999998
29.400000000000038,0.0061539999999999
29.600000000000023,0.0063849999999998
29.80000000000001,0.0069429999999999
30.0,0.0064809999999999
30.19999999999999,0.0053929999999999
30.400000000000038,0.0037049999999998
30.600000000000023,0.0031519999999998
30.80000000000001,0.0034359999999999
31.0,0.0031729999999998
31.19999999999999,0.0027869999999998
31.400000000000038,0.0021789999999999
31.600000000000023,0.0010169999999998
31.80000000000001,-0.000229
32.0,-0.0010700000000001
32.19999999999999,-0.0031020000000001
32.400000000000034,-0.003292
32.60000000000002,-0.0025570000000001
32.80000000000001,-0.0017960000000001
33.0,-0.00079
33.19999999999999,0.0007209999999999
33.400000000000034,0.0004649999999999
33.60000000000002,-0.0019980000000001
33.80000000000001,-0.004455
34.0,-0.006788
34.19999999999999,-0.006542
34.400000000000034,-0.0050400000000001
34.60000000000002,-0.0013720000000001
34.80000000000001,0.0013759999999998
35.0,0.0033519999999997
35.19999999999999,0.0035059999999997
35.400000000000034,0.0046419999999998
35.60000000000002,0.0057219999999997
35.80000000000001,0.0071509999999999
36.0,0.0088059999999998
36.19999999999999,0.0102239999999997
36.400000000000034,0.0102059999999999
36.60000000000002,0.0082069999999998
36.80000000000001,0.006162
37.0,0.0031429999999998
37.19999999999999,-0.0001630000000001
37.400000000000034,-0.003336
37.60000000000002,-0.004906
37.80000000000001,-0.0069080000000001
38.0,-0.006302
38.19999999999999,-0.0032530000000001
38.400000000000034,0.0008439999999998
38.60000000000002,0.0045749999999999
38.80000000000001,0.0083339999999998
39.0,0.0089249999999998
39.19999999999999,0.0081949999999999
39.400000000000034,0.0069479999999999
39.60000000000002,0.0057929999999999
39.80000000000001,0.0050019999999999
40.0,0.0062359999999999
40.19999999999999,0.0064109999999999
40.400000000000034,0.0071329999999998
40.60000000000002,0.0064809999999999
40.80000000000001,0.0047739999999998
41.0,0.0018309999999999
41.19999999999999,0.0010889999999998
41.400000000000034,3.0999999999892225e-05
41.60000000000002,-0.0008430000000001
41.80000000000001,-0.000815
42.0,-0.0011160000000001
42.19999999999999,-0.0029970000000001
42.400000000000034,-0.0054860000000001
42.60000000000002,-0.0062159999999999
42.80000000000001,-0.0074260000000001
43.0,-0.0059950000000001
43.19999999999999,-0.006062
43.400000000000034,-0.0063170000000001
43.60000000000002,-0.006788
43.80000000000001,-0.0057360000000001
44.0,-0.006947
44.19999999999999,-0.007384
44.400000000000034,-0.0058520000000001
44.60000000000002,-0.0035210000000001
44.80000000000001,-0.0033240000000001
45.0,-0.0020230000000001
45.19999999999999,-0.002482
45.400000000000034,-0.003557
45.60000000000002,-0.006537
45.80000000000001,-0.0078740000000001
46.0,-0.011506
46.19999999999999,-0.012725
46.400000000000034,-0.01417
46.60000000000002,-0.0133420000000001
46.80000000000001,-0.012189
47.0,-0.009363
47.19999999999999,-0.007492
47.400000000000034,-0.0058820000000001
47.60000000000002,-0.006135
47.80000000000001,-0.004064
48.0,-0.001514
48.19999999999999,0.0001959999999998
48.400000000000034,0.0015709999999999
48.60000000000002,0.0021519999999999
48.80000000000001,-1.0000000000065512e-05
49.0,-0.0025840000000001
49.19999999999999,-0.0023410000000001
49.400000000000034,-0.0033830000000001
49.60000000000002,-0.003751
49.80000000000001,-0.0044430000000001
50.0,-0.0051780000000001
50.19999999999999,-0.005648
50.400000000000034,-0.0039060000000001
50.60000000000002,-0.0021360000000001
50.80000000000001,-0.00099
51.0,0.0002019999999998
51.19999999999999,0.0008749999999999
51.400000000000034,-9.100000000006324e-05
51.60000000000002,-0.001074
51.80000000000001,-0.001972
52.0,-0.0024680000000001
52.19999999999999,-0.003743
52.400000000000034,-0.0049920000000001
52.60000000000002,-0.0053610000000001
52.80000000000001,-0.0066940000000002
53.0,-0.0090180000000001
53.19999999999999,-0.009884
53.400000000000034,-0.0083330000000001
53.60000000000002,-0.0081250000000001
53.80000000000001,-0.0062429999999999
54.0,-0.005594
54.19999999999999,-0.006723
54.400000000000034,-0.0100840000000002
54.60000000000002,-0.0103700000000002
54.80000000000001,-0.009975
55.0,-0.006969
55.19999999999999,-0.00495
55.400000000000034,-0.003092
55.60000000000002,-0.0021980000000001
55.80000000000001,-0.0010800000000001
56.0,-0.0015660000000001
56.19999999999999,-0.0001790000000001
56.400000000000034,0.0028259999999999
56.60000000000002,0.0038399999999998
56.80000000000001,0.0028599999999998
57.0,0.0008649999999998
57.19999999999999,-0.0006620000000001
57.400000000000034,-0.0037
57.60000000000002,-0.0047030000000001
57.80000000000001,-0.0048110000000001
58.0,-0.0015850000000001
58.19999999999999,0.0010169999999998
58.400000000000034,0.0020969999999997
58.60000000000002,0.0016379999999998
58.80000000000001,0.0015329999999997
59.0,0.0006239999999999
59.19999999999999,-0.0026890000000001
59.400000000000034,-0.0017720000000001
59.60000000000002,-0.001276
59.80000000000001,-0.002871
60.0,-0.0060680000000001
60.19999999999999,-0.0046830000000002
60.400000000000034,-0.0059570000000002
60.60000000000002,-0.005552
60.80000000000001,-0.0052100000000001
61.0,-0.0037550000000001
61.19999999999999,-0.0038260000000001
61.400000000000034,-0.004512
61.60000000000002,-0.0057740000000001
61.80000000000001,-0.004674
62.00000000000006,-0.0037660000000001
62.19999999999999,-0.004269
62.400000000000034,-0.0046520000000001
62.599999999999966,-0.0055400000000001
62.80000000000001,-0.005859
63.00000000000006,-0.00597
63.19999999999999,-0.004056
63.400000000000034,-0.0024050000000002
63.599999999999966,-0.0003600000000001
63.80000000000001,0.0014979999999999
64.00000000000006,0.0023409999999999
64.19999999999999,0.0007649999999999
64.40000000000003,-0.0003030000000001
64.59999999999997,-0.000151
64.80000000000001,-0.0004890000000001
65.00000000000006,0.0003269999999999
65.19999999999999,0.0013679999999998
65.40000000000003,0.0032369999999999
65.59999999999997,0.0024769999999998
65.80000000000001,0.0021629999999999
66.00000000000006,0.0032039999999999
66.19999999999999,0.0041269999999999
66.40000000000003,0.0047339999999997
66.59999999999997,0.0047329999999998
66.80000000000001,0.0029999999999998
67.00000000000006,-0.001033
67.19999999999999,-0.002583
67.40000000000003,-0.004032
67.59999999999997,-0.00516
67.80000000000001,-0.00377
68.00000000000006,-0.0024300000000001
68.19999999999999,-0.002482
68.40000000000003,-0.0042870000000001
68.59999999999997,-0.005624
68.80000000000001,-0.0078150000000001
69.00000000000006,-0.007875
69.19999999999999,-0.0082730000000001
69.40000000000003,-0.0072860000000001
69.59999999999997,-0.0047220000000001
69.80000000000001,-0.0036610000000001
70.00000000000006,-0.005792
70.19999999999999,-0.00882
70.40000000000003,-0.0086480000000002
70.59999999999997,-0.008243
70.80000000000001,-0.0080710000000001
71.00000000000006,-0.0063460000000001
71.19999999999999,-0.003416
71.40000000000003,-0.002877
71.59999999999997,-0.003549
71.80000000000001,-0.004118
72.00000000000006,-0.0047650000000001
72.19999999999999,-0.0051620000000001
72.40000000000003,-0.007014
72.59999999999997,-0.0090910000000001
72.80000000000001,-0.0095720000000001
73.00000000000006,-0.00936
73.19999999999999,-0.009605
73.40000000000003,-0.00798
73.59999999999997,-0.0049700000000001
73.80000000000001,-0.0005030000000001
74.00000000000006,0.0009719999999999
74.19999999999999,0.0015549999999999
74.40000000000003,-0.0002840000000001
74.59999999999997,-0.002893
74.80000000000001,-0.0081630000000001
75.00000000000006,-0.0099200000000001
75.19999999999999,-0.0094550000000002
75.40000000000003,-0.008685
75.59999999999997,-0.0072660000000002
75.80000000000001,-0.0061330000000001
76.00000000000006,-0.00516
76.19999999999999,-0.0050460000000001
76.40000000000003,-0.003716
76.59999999999997,-0.0027920000000001
76.80000000000001,-0.002674
77.00000000000006,-0.0022970000000002
77.19999999999999,-0.0026860000000001
77.40000000000003,-0.0033420000000001
77.59999999999997,-0.005444
77.80000000000001,-0.005044
78.00000000000006,-0.004124
78.19999999999999,-0.0044870000000001
78.40000000000003,-0.003864
78.59999999999997,-0.0026300000000001
78.80000000000001,-0.0027570000000001
79.00000000000006,-0.006831
79.19999999999999,-0.0074450000000001
79.40000000000003,-0.005951
79.59999999999997,-0.003139
79.80000000000001,-0.0005000000000001
80.00000000000006,0.0035669999999998
80.19999999999999,0.0053309999999999
80.40000000000003,0.0041169999999999
80.59999999999997,0.0024559999999997
80.80000000000001,0.0018459999999997
81.00000000000006,0.0015279999999999
81.19999999999999,0.0006599999999998
81.40000000000003,-0.0012310000000002
81.59999999999997,-0.002968
81.80000000000001,-0.0046790000000001
82.00000000000006,-0.0045840000000001
82.19999999999999,-0.005325
82.40000000000003,-0.0058470000000001
82.59999999999997,-0.005972
82.80000000000001,-0.006807
83.00000000000006,-0.007419
83.19999999999999,-0.007776
83.40000000000003,-0.00722
83.59999999999997,-0.0071020000000001
83.80000000000001,-0.005657
84.00000000000006,-0.003981
84.19999999999999,-0.003033
84.40000000000003,-0.0032880000000001
84.59999999999997,-0.004901
84.80000000000001,-0.008944
85.00000000000006,-0.0123220000000001
85.19999999999999,-0.0129180000000002
85.40000000000003,-0.0119030000000002
85.59999999999997,-0.0103010000000001
85.80000000000001,-0.0076830000000001
86.00000000000006,-0.0073780000000001
86.19999999999999,-0.0089480000000001
86.40000000000003,-0.010909
86.59999999999997,-0.0102170000000001
86.80000000000001,-0.00703
87.00000000000006,-0.0031450000000001
87.19999999999999,0.0001359999999999
87.40000000000003,-9.200000000020304e-05
87.59999999999997,-0.00289
87.80000000000001,-0.0070290000000001
88.00000000000006,-0.0096480000000001
88.19999999999999,-0.0110240000000001
88.40000000000003,-0.0089450000000002
88.59999999999997,-0.00696
88.80000000000001,-0.0047290000000002
89.00000000000006,-0.0038250000000001
89.19999999999999,-0.0029640000000001
89.40000000000003,-0.00207
89.59999999999997,0.0005569999999999
89.80000000000001,0.0012089999999997
90.00000000000006,0.0009589999999999
90.2,0.0002659999999998
90.40000000000003,-0.000971
90.59999999999997,-0.004053
90.8,-0.0051320000000001
91.00000000000006,-0.005319
91.2,-0.004769
91.40000000000003,-0.0055880000000001
91.59999999999997,-0.007735
91.8,-0.01187
92.00000000000006,-0.015829
92.2,-0.017714
92.40000000000003,-0.016329
92.59999999999997,-0.013179
92.8,-0.0098950000000002
93.00000000000006,-0.0069300000000001
93.2,-0.0062390000000001
93.40000000000003,-0.0069730000000001
93.59999999999997,-0.0068890000000001
93.8,-0.0073590000000001
94.00000000000006,-0.0067290000000002
94.2,-0.005543
94.40000000000003,-0.0045540000000001
94.59999999999997,-0.0047680000000001
94.8,-0.005095
95.00000000000006,-0.0063010000000001
95.2,-0.0078820000000001
95.40000000000003,-0.0079120000000001
95.59999999999997,-0.0081760000000001
95.8,-0.007794
96.00000000000006,-0.008189
96.2,-0.008944
96.40000000000003,-0.010342
96.59999999999997,-0.0107350000000001
96.8,-0.0096310000000001
97.00000000000006,-0.006583
97.2,-0.0026410000000001
97.40000000000003,-0.0002220000000001
97.59999999999997,0.0013539999999998
97.8,0.0003029999999999
98.00000000000006,-0.003192
98.2,-0.0057360000000001
98.40000000000003,-0.0075010000000002
98.59999999999997,-0.0083970000000002
98.8,-0.008496
99.00000000000006,-0.007549
99.2,-0.0086520000000001
99.40000000000003,-0.009376
99.59999999999997,-0.0090940000000001
99.8,-0.0065030000000001
100.00000000000006,-0.0071160000000001
100.2,-0.00641
100.40000000000003,-0.005133
100.59999999999997,-0.004226
100.8,-0.005222
101.00000000000006,-0.0043000000000001
101.2,-0.0045700000000001
101.40000000000003,-0.006725
101.59999999999997,-0.009033
101.8,-0.0103900000000001
102.00000000000006,-0.0114510000000001
102.2,-0.0115580000000001
102.40000000000003,-0.0101460000000002
102.59999999999997,-0.0093150000000001
102.8,-0.0069730000000001
103.00000000000006,-0.0051640000000001
103.2,-0.005608
103.40000000000003,-0.005406
103.59999999999997,-0.0062440000000001
103.8,-0.00926
104.00000000000006,-0.0111500000000002
104.2,-0.011071
104.40000000000003,-0.0106330000000001
104.59999999999997,-0.0089620000000001
104.8,-0.006572
105.00000000000006,-0.0037550000000001
105.2,-0.001751
105.40000000000003,-0.0015440000000002
105.59999999999997,-0.0016450000000001
105.8,-0.001047
106.00000000000006,-0.0023790000000001
106.2,-0.0046350000000001
106.40000000000003,-0.007193
106.59999999999997,-0.0089670000000001
106.8,-0.0114260000000001
107.00000000000006,-0.010955
107.2,-0.0105000000000001
107.40000000000003,-0.0110050000000001
107.59999999999997,-0.013616
107.8,-0.0157090000000001
108.00000000000006,-0.0170430000000001
108.2,-0.0155580000000001
108.40000000000003,-0.0124600000000001
108.59999999999997,-0.0091150000000002
108.8,-0.006205
109.00000000000006,-0.0037690000000001
109.2,-0.0027830000000002
109.40000000000003,-0.0030420000000002
109.59999999999997,-0.0039950000000001
109.8,-0.0052750000000001
110.00000000000006,-0.007738
110.2,-0.0097020000000001
110.40000000000003,-0.00957
110.59999999999997,-0.0080380000000002
110.8,-0.0068290000000001
111.00000000000006,-0.0075180000000001
111.2,-0.0071970000000001
111.40000000000003,-0.007856
111.59999999999997,-0.0075010000000002
111.8,-0.0081710000000001
112.00000000000006,-0.007152
112.2,-0.007886
112.40000000000003,-0.0088000000000001
112.59999999999997,-0.009946
112.8,-0.0092260000000001
113.00000000000006,-0.0086840000000001
113.2,-0.008286
113.40000000000003,-0.008296
113.59999999999997,-0.008032
113.8,-0.0088050000000001
114.00000000000006,-0.0087860000000001
114.2,-0.0058600000000001
114.40000000000003,-0.0014550000000002
114.59999999999997,0.0003299999999999
114.8,0.0008079999999999
115.00000000000006,-0.0013550000000002
115.2,-0.005168
115.40000000000003,-0.009662
115.59999999999997,-0.0132830000000001
115.8,-0.0143740000000001
116.00000000000006,-0.013433
116.2,-0.0112510000000001
116.40000000000003,-0.008313
116.59999999999997,-0.0047670000000001
116.8,-0.0029880000000002
117.00000000000006,-0.0024220000000001
117.2,-0.002528
117.40000000000003,-0.0024220000000001
117.59999999999997,-0.0050540000000001
117.8,-0.006793
118.00000000000006,-0.0075830000000001
118.2,-0.0086940000000002
118.40000000000003,-0.01075
118.59999999999997,-0.010709
118.8,-0.010086
119.00000000000006,-0.007757
119.2,-0.0057520000000002
119.40000000000003,-0.00228
119.59999999999997,0.0017899999999999
119.8,0.0034199999999999
120.00000000000006,0.0018269999999998
120.2,-0.0008080000000001
120.40000000000003,-0.0041810000000002
120.59999999999997,-0.006914
120.8,-0.008118
121.00000000000006,-0.00705
121.2,-0.0058120000000001
121.40000000000003,-0.0055480000000001
121.59999999999997,-0.005765
121.8,-0.0057
122.00000000000006,-0.0074960000000001
122.2,-0.0088190000000001
122.40000000000003,-0.0095010000000002
122.59999999999997,-0.0099010000000001
122.8,-0.010599
123.00000000000006,-0.0104430000000002
123.2,-0.0116210000000001
123.40000000000003,-0.0121470000000001
123.59999999999997,-0.011686
123.8,-0.0110530000000002
124.00000000000006,-0.011964
124.2,-0.0123570000000001
124.40000000000003,-0.013983
124.59999999999997,-0.0152230000000002
124.8,-0.0151210000000001
125.00000000000006,-0.0121660000000001
125.2,-0.0089590000000001
125.40000000000003,-0.0059340000000001
125.59999999999997,-0.00499
125.8,-0.004099
126.00000000000006,-0.007163
126.2,-0.010698
126.40000000000003,-0.01225
126.59999999999997,-0.013031
126.8,-0.0135
127.00000000000006,-0.0125300000000001
127.2,-0.010828
127.40000000000003,-0.011006
127.59999999999997,-0.0107080000000001
127.8,-0.0104900000000001
128.00000000000006,-0.0096150000000001
128.2,-0.0091260000000001
128.40000000000003,-0.008464
128.59999999999997,-0.0084460000000001
128.8,-0.010561
129.00000000000006,-0.0109970000000001
129.2,-0.0110190000000001
129.40000000000003,-0.011309
129.59999999999997,-0.0112260000000001
129.8,-0.0102600000000001
130.00000000000006,-0.0097640000000001
130.2,-0.009478
130.40000000000003,-0.0098880000000001
130.59999999999997,-0.01069
130.8,-0.0093240000000001
131.00000000000006,-0.00936
131.2,-0.008383
131.40000000000003,-0.0078200000000001
131.59999999999997,-0.007173
131.8,-0.008502
132.00000000000006,-0.008915
132.2,-0.0103090000000001
132.40000000000003,-0.0105510000000001
132.59999999999997,-0.011438
132.8,-0.0136690000000001
133.00000000000006,-0.0158640000000001
133.2,-0.0148970000000001
133.40000000000003,-0.0131000000000001
133.59999999999997,-0.01227
133.8,-0.010021
134.00000000000006,-0.008223
134.2,-0.0087680000000001
134.40000000000003,-0.011692
134.59999999999997,-0.012229
134.8,-0.0121440000000001
135.00000000000006,-0.0120470000000001
135.2,-0.013125
135.40000000000003,-0.0119140000000002
135.59999999999997,-0.011225
135.8,-0.0104440000000001
136.00000000000006,-0.0094
136.2,-0.0080730000000002
136.40000000000003,-0.0095480000000001
136.59999999999997,-0.010447
136.8,-0.0115340000000001
137.00000000000006,-0.010369
137.2,-0.0081060000000001
137.40000000000003,-0.0034420000000001
137.59999999999997,1.899999999999125e-05
137.8,0.0017729999999998
138.00000000000006,0.0008269999999999
138.2,-0.0013820000000002
138.40000000000003,-0.005101
138.59999999999997,-0.008955
138.8,-0.0109700000000001
139.00000000000006,-0.010167
139.2,-0.009395
139.40000000000003,-0.006296
139.59999999999997,-0.004018
139.8,-0.0025810000000001
140.00000000000006,-0.003953
140.2,-0.0051860000000001
140.40000000000003,-0.008529
140.59999999999997,-0.0096740000000001
140.8,-0.0106670000000002
141.00000000000006,-0.0114880000000001
141.2,-0.012715
141.40000000000003,-0.012035
141.59999999999997,-0.011446
141.8,-0.0109890000000001
142.00000000000006,-0.010645
142.2,-0.0087620000000001
142.40000000000003,-0.008213
142.59999999999997,-0.0087080000000001
142.8,-0.009748
143.00000000000006,-0.011754
143.2,-0.013748
143.40000000000003,-0.01425
143.59999999999997,-0.0137600000000002
143.8,-0.0119770000000001
144.00000000000006,-0.0103470000000001
144.2,-0.0094899999999999
144.40000000000003,-0.008564
144.59999999999997,-0.0078800000000001
144.8,-0.008547
145.00000000000006,-0.0091430000000001
145.2,-0.01008
145.40000000000003,-0.011533
145.59999999999997,-0.012547
145.8,-0.012288
146.00000000000006,-0.011319
146.2,-0.0103810000000001
146.40000000000003,-0.0093510000000001
146.59999999999997,-0.0077910000000001
146.8,-0.0076690000000001
147.00000000000006,-0.007454
147.2,-0.0090460000000001
147.40000000000003,-0.00947
147.59999999999997,-0.010745
147.8,-0.0122630000000001
148.00000000000006,-0.013856
148.2,-0.0118759999999999
148.40000000000003,-0.011619
148.59999999999997,-0.0125330000000001
148.8,-0.010393
149.00000000000006,-0.006377
149.2,-0.0039880000000001
149.40000000000003,-0.0032590000000001
149.59999999999997,-0.003697
149.8,-0.0066210000000002
150.00000000000006,-0.009719
150.2,-0.0125410000000001
150.40000000000003,-0.014056
150.59999999999997,-0.0150510000000001
150.8,-0.0137040000000001
151.00000000000006,-0.014181
151.2,-0.015325
151.40000000000003,-0.015571
151.59999999999997,-0.0159760000000002
151.8,-0.017524
152.00000000000006,-0.016645
152.2,-0.0145810000000001
152.40000000000003,-0.0143870000000001
152.59999999999997,-0.0122270000000002
152.8,-0.012121
153.00000000000006,-0.0131180000000001
153.2,-0.0148240000000001
153.40000000000003,-0.0155690000000001
153.59999999999997,-0.017751
153.8,-0.0185780000000002
154.00000000000006,-0.0191110000000001
154.2,-0.019878
154.40000000000003,-0.0200690000000001
154.59999999999997,-0.0170290000000001
154.8,-0.0146860000000001
155.00000000000006,-0.0133180000000001
155.2,-0.0111020000000001
155.40000000000003,-0.0091190000000001
155.59999999999997,-0.0091510000000001
155.8,-0.009362
156.00000000000006,-0.009279
156.2,-0.0110020000000001
156.40000000000003,-0.013071
156.59999999999997,-0.0157990000000001
156.8,-0.0151020000000001
157.00000000000006,-0.014664
157.2,-0.014432
157.40000000000003,-0.0139390000000001
157.59999999999997,-0.0131020000000001
157.8,-0.01651
158.00000000000006,-0.0195340000000001
158.2,-0.020834
158.40000000000003,-0.0217710000000002
158.59999999999997,-0.020863
158.8,-0.019956
159.00000000000006,-0.018944
159.2,-0.0160280000000001
159.40000000000003,-0.0122660000000001
159.59999999999997,-0.0100950000000001
159.8,-0.0067210000000001
160.00000000000006,-0.003568
160.2,-0.002868
160.40000000000003,-0.0055630000000002
160.59999999999997,-0.0092080000000001
160.8,-0.0120790000000001
161.00000000000006,-0.0145170000000001
161.2,-0.015446
161.40000000000003,-0.0139140000000002
161.59999999999997,-0.0116980000000002
161.8,-0.0104410000000001
162.00000000000006,-0.0102930000000001
162.2,-0.0107110000000001
162.40000000000003,-0.0129510000000001
162.59999999999997,-0.016331
162.8,-0.0196990000000001
163.00000000000006,-0.020534
163.2,-0.019792
163.40000000000003,-0.016933
163.59999999999997,-0.016145
163.8,-0.0150190000000001
164.00000000000006,-0.01451
164.2,-0.0141500000000001
164.40000000000003,-0.0147080000000001
164.59999999999997,-0.0132240000000001
164.8,-0.011098
165.00000000000006,-0.010718
165.2,-0.012291
165.40000000000003,-0.0137900000000001
165.59999999999997,-0.014604
165.8,-0.015598
166.00000000000006,-0.0147760000000001
166.2,-0.0151700000000001
166.40000000000003,-0.0151730000000001
166.59999999999997,-0.0148810000000001
166.8,-0.0144600000000001
167.00000000000006,-0.0158090000000001
167.2,-0.0156750000000001
167.40000000000003,-0.0162410000000001
167.59999999999997,-0.0156440000000002
167.8,-0.0152800000000001
168.00000000000006,-0.0142030000000001
168.2,-0.014402
168.40000000000003,-0.013527
168.59999999999997,-0.0134940000000001
168.8,-0.015392
169.00000000000006,-0.0179070000000001
169.2,-0.01892
169.40000000000003,-0.019408
169.59999999999997,-0.019759
169.8,-0.020045
170.00000000000006,-0.0181730000000002
170.2,-0.015943
170.40000000000003,-0.013328
170.59999999999997,-0.0104490000000001
170.8,-0.0056990000000001
171.00000000000006,-0.004925
171.2,-0.005808
171.40000000000003,-0.0070780000000001
171.59999999999997,-0.0063220000000001
171.8,-0.0060870000000001
172.00000000000006,-0.0052930000000002
172.2,-0.003862
172.40000000000003,-0.0038390000000001
172.59999999999997,-0.0073340000000001
172.8,-0.010671
173.00000000000006,-0.0114660000000001
173.2,-0.012291
173.40000000000003,-0.012288
173.59999999999997,-0.01025
173.8,-0.008664
174.00000000000006,-0.009171
174.2,-0.0107560000000002
174.40000000000003,-0.012655
174.59999999999997,-0.0156710000000002
174.8,-0.018283
175.00000000000006,-0.019489
175.2,-0.0199170000000001
175.40000000000003,-0.019603
175.59999999999997,-0.019419
175.8,-0.0183220000000001
176.00000000000006,-0.0175
176.2,-0.0164840000000001
176.40000000000003,-0.015587
176.59999999999997,-0.014998
176.8,-0.0149110000000001
177.00000000000006,-0.014288
177.2,-0.012582
177.40000000000003,-0.010807
177.59999999999997,-0.009004
177.8,-0.0073390000000002
178.00000000000006,-0.0080220000000001
178.2,-0.0096580000000001
178.40000000000003,-0.011074
178.59999999999997,-0.0119440000000001
178.8,-0.012677
179.00000000000006,-0.0108730000000001
179.2,-0.0097660000000001
179.40000000000003,-0.0094910000000001
179.59999999999997,-0.008963
179.8,-0.006526
180.00000000000006,-0.00583
180.2,-0.0068210000000001
180.40000000000003,-0.0076450000000001
180.6,-0.0083460000000001
180.8,-0.0119
181.00000000000009,-0.014683
181.2,-0.0145170000000001
181.40000000000003,-0.013517
181.6,-0.013131
181.8,-0.0128650000000001
182.00000000000009,-0.013516
182.2,-0.0144380000000001
182.40000000000003,-0.0178470000000001
182.6,-0.021179
182.8,-0.0223360000000001
183.00000000000009,-0.0213700000000001
183.2,-0.0205050000000002
183.40000000000003,-0.0170700000000001
183.6,-0.0148370000000002
183.8,-0.0118420000000001
184.00000000000009,-0.0103920000000001
184.2,-0.0102680000000001
184.40000000000003,-0.0119090000000001
184.6,-0.01296
184.8,-0.01672
185.00000000000009,-0.018601
185.2,-0.0189560000000001
185.40000000000003,-0.0195740000000002
185.6,-0.0208060000000001
185.8,-0.020375
186.00000000000009,-0.0203460000000001
186.2,-0.019355
186.40000000000003,-0.0173120000000002
186.6,-0.0128910000000002
186.8,-0.009246
187.00000000000009,-0.0082550000000001
187.2,-0.010453
187.40000000000003,-0.012415
187.6,-0.0134580000000001
187.8,-0.014985
188.00000000000009,-0.014931
188.2,-0.0132620000000001
188.40000000000003,-0.0120630000000001
188.6,-0.0131270000000001
188.8,-0.0132990000000001
189.00000000000009,-0.0127130000000001
189.2,-0.0122550000000001
189.40000000000003,-0.0099690000000001
189.6,-0.0076020000000001
189.8,-0.0054120000000001
190.00000000000009,-0.0072
190.2,-0.009424
190.40000000000003,-0.013892
190.6,-0.0174670000000001
190.8,-0.020439
191.00000000000009,-0.017538
191.2,-0.0151240000000001
191.40000000000003,-0.013929
191.6,-0.0130990000000001
191.8,-0.0127940000000001
192.00000000000009,-0.0164300000000001
192.2,-0.019068
192.40000000000003,-0.0184140000000001
192.6,-0.0175720000000001
192.8,-0.0176120000000001
193.00000000000009,-0.0149220000000001
193.2,-0.010812
193.40000000000003,-0.0079090000000001
193.6,-0.0074200000000002
193.8,-0.0077230000000001
194.00000000000009,-0.009606
194.2,-0.0122300000000001
194.40000000000003,-0.015692
194.6,-0.0184240000000002
194.8,-0.018858
195.00000000000009,-0.0177990000000001
195.2,-0.0162660000000001
195.40000000000003,-0.0158090000000001
195.6,-0.0142630000000001
195.8,-0.014043
196.00000000000009,-0.0132130000000001
196.2,-0.014521
196.40000000000003,-0.014723
196.6,-0.014196
196.8,-0.013398
197.00000000000009,-0.0155180000000001
197.2,-0.016369
197.40000000000003,-0.0160790000000001
197.6,-0.0154670000000001
197.8,-0.0154800000000001
198.00000000000009,-0.0157710000000002
198.2,-0.0168650000000001
198.40000000000003,-0.018072
198.6,-0.019727
198.8,-0.0204490000000001
199.00000000000009,-0.018002
199.2,-0.01529
199.40000000000003,-0.0118230000000001
199.6,-0.0099900000000001
199.8,-0.009047
200.00000000000009,-0.012304
200.2,-0.015832
200.40000000000003,-0.020483
200.6,-0.022788
200.8,-0.0243350000000002
201.00000000000009,-0.0233370000000001
201.2,-0.020769
201.40000000000003,-0.0193290000000001
201.6,-0.020318
201.8,-0.0228130000000001
202.00000000000009,-0.0234740000000002
202.2,-0.023692
202.40000000000003,-0.023436
202.6,-0.021692
202.8,-0.0185410000000001
203.00000000000009,-0.0178330000000002
203.2,-0.0195560000000001
203.40000000000003,-0.0210750000000001
203.6,-0.0228680000000001
203.8,-0.0245970000000002
204.00000000000009,-0.0252880000000002
204.2,-0.0244350000000002
204.40000000000003,-0.0229970000000001
204.6,-0.0200360000000001
204.8,-0.0175880000000001
205.00000000000009,-0.0173160000000001
205.2,-0.016971
205.40000000000003,-0.015376
205.6,-0.0161600000000001
205.8,-0.01715
206.00000000000009,-0.0160760000000002
206.2,-0.0153070000000001
206.40000000000003,-0.0169720000000002
206.6,-0.017552
206.8,-0.0162570000000001
207.00000000000009,-0.015992
207.2,-0.0159520000000001
207.40000000000003,-0.01574
207.6,-0.0178370000000001
207.8,-0.021082
208.00000000000009,-0.0222570000000001
208.2,-0.0240070000000001
208.40000000000003,-0.0257260000000001
208.6,-0.024685
208.8,-0.0230970000000001
209.00000000000009,-0.0226760000000001
209.2,-0.021206
209.40000000000003,-0.018051
209.6,-0.016102
209.8,-0.015403
210.00000000000009,-0.015773
210.2,-0.0164740000000001
210.40000000000003,-0.016321
210.6,-0.0137150000000001
210.8,-0.0118440000000001
211.00000000000009,-0.0118
211.2,-0.0118930000000001
211.40000000000003,-0.0125710000000001
211.6,-0.0157120000000001
211.8,-0.0191540000000001
212.00000000000009,-0.020569
212.2,-0.0227400000000002
212.40000000000003,-0.02655
212.6,-0.0293320000000001
212.8,-0.0277120000000001
213.00000000000009,-0.0252370000000001
213.2,-0.0208640000000002
213.40000000000003,-0.0169830000000001
213.6,-0.014345
213.8,-0.014866
214.00000000000009,-0.016351
214.2,-0.0183350000000002
214.40000000000003,-0.0202760000000001
214.6,-0.0214850000000002
214.8,-0.02197
215.00000000000009,-0.020807
215.2,-0.01923
215.40000000000003,-0.0157630000000001
215.6,-0.0130810000000001
215.8,-0.0115979999999999
216.00000000000009,-0.0123080000000002
216.2,-0.0145270000000001
216.40000000000003,-0.018232
216.6,-0.0207490000000001
216.8,-0.0216290000000001
217.00000000000009,-0.0217480000000001
217.2,-0.020175
217.40000000000003,-0.0182920000000001
217.6,-0.017614
217.8,-0.0186860000000002
218.00000000000009,-0.0177869999999999
218.2,-0.018348
218.40000000000003,-0.019967
218.6,-0.021741
218.8,-0.022561
219.00000000000009,-0.023282
219.2,-0.023657
219.40000000000003,-0.021822
219.6,-0.0190180000000002
219.8,-0.0173390000000002
220.00000000000009,-0.018002
220.2,-0.018175
220.40000000000003,-0.018618
220.6,-0.0203010000000001
220.8,-0.02004
221.00000000000009,-0.018537
221.2,-0.018364
221.40000000000003,-0.0190240000000001
221.6,-0.018318
221.8,-0.0182920000000001
222.00000000000009,-0.0182490000000001
222.2,-0.019441
222.40000000000003,-0.019633
222.6,-0.0187650000000001
222.8,-0.0179180000000001
223.00000000000009,-0.0178980000000001
223.2,-0.0168760000000001
223.40000000000003,-0.0173640000000001
223.6,-0.0177660000000001
223.8,-0.0173430000000001
224.00000000000009,-0.0193180000000001
224.2,-0.0200930000000001
224.40000000000003,-0.0205350000000001
224.6,-0.020313
224.8,-0.0201220000000001
225.00000000000009,-0.017193
225.2,-0.0142600000000001
225.40000000000003,-0.012251
225.6,-0.0129320000000001
225.8,-0.0142840000000001
226.00000000000009,-0.015705
226.2,-0.0161170000000001
226.40000000000003,-0.0160850000000001
226.6,-0.015138
226.8,-0.0167210000000002
227.00000000000009,-0.0170240000000001
227.2,-0.018709
227.40000000000003,-0.0205490000000001
227.6,-0.0227680000000001
227.8,-0.0215530000000001
228.00000000000009,-0.0209460000000001
228.2,-0.018968
228.40000000000003,-0.015638
228.6,-0.014072
228.8,-0.015303
229.00000000000009,-0.018175
229.2,-0.0214290000000001
229.40000000000003,-0.0230700000000001
229.6,-0.0229540000000001
229.8,-0.0206840000000001
230.00000000000009,-0.018472
230.2,-0.017435
230.40000000000003,-0.01791
230.6,-0.017978
230.8,-0.0192510000000001
231.00000000000009,-0.0191160000000001
231.2,-0.0211400000000001
231.40000000000003,-0.0234700000000001
231.6,-0.023611
231.8,-0.0208190000000001
232.00000000000009,-0.0185440000000001
232.2,-0.0143200000000001
232.40000000000003,-0.0102760000000001
232.6,-0.0104860000000002
232.8,-0.013586
233.00000000000009,-0.0169780000000001
233.2,-0.020178
233.40000000000003,-0.0237910000000001
233.6,-0.0243490000000001
233.8,-0.0235370000000001
234.00000000000009,-0.0240230000000001
234.2,-0.022019
234.40000000000003,-0.018977
234.6,-0.0185460000000001
234.8,-0.017498
235.00000000000009,-0.0153510000000001
235.2,-0.0150020000000001
235.40000000000003,-0.0156040000000001
235.6,-0.0141390000000001
235.8,-0.013622
236.00000000000009,-0.01404
236.2,-0.0142600000000001
236.40000000000003,-0.0152480000000001
236.6,-0.0173700000000001
236.8,-0.019981
237.00000000000009,-0.021425
237.2,-0.023644
237.40000000000003,-0.022866
237.6,-0.0218200000000001
237.8,-0.021697
238.00000000000009,-0.022205
238.2,-0.0218230000000001
238.40000000000003,-0.0221710000000001
238.6,-0.0233180000000001
238.8,-0.022575
239.00000000000009,-0.021098
239.2,-0.0197740000000001
239.40000000000003,-0.020126
239.6,-0.0189490000000001
239.8,-0.018723
240.00000000000009,-0.0180030000000002
240.2,-0.0179710000000001
240.40000000000003,-0.019041
240.6,-0.022534
240.8,-0.0247350000000001
241.00000000000009,-0.0263270000000002
241.2,-0.0287780000000001
241.40000000000003,-0.0307190000000001
241.6,-0.029314
241.8,-0.026866
242.00000000000009,-0.0240900000000001
242.2,-0.0210350000000001
242.40000000000003,-0.019187
242.6,-0.0191880000000002
242.8,-0.021824
243.00000000000009,-0.0257290000000001
243.2,-0.027546
243.40000000000003,-0.025781
243.6,-0.0227430000000001
243.8,-0.0196690000000001
244.00000000000009,-0.016823
244.2,-0.0154260000000001
244.40000000000003,-0.0161140000000001
244.6,-0.0174500000000001
244.8,-0.0191080000000001
245.00000000000009,-0.020116
245.2,-0.020944
245.40000000000003,-0.0229160000000001
245.6,-0.024
245.8,-0.0242730000000002
246.00000000000009,-0.0259330000000002
246.2,-0.026923
246.40000000000003,-0.025317
246.6,-0.0244680000000001
246.8,-0.0245570000000001
247.00000000000009,-0.023992
247.2,-0.0231270000000001
247.40000000000003,-0.022877
247.6,-0.02201
247.8,-0.0208490000000001
248.00000000000009,-0.019303
248.2,-0.0185300000000001
248.40000000000003,-0.0183220000000001
248.6,-0.017403
248.8,-0.0168680000000001
249.00000000000009,-0.017071
249.2,-0.01783
249.40000000000003,-0.017651
249.6,-0.0170700000000001
249.8,-0.015986
250.00000000000009,-0.0178930000000001
250.2,-0.0200090000000001
250.40000000000003,-0.021835
250.6,-0.024005
250.8,-0.0268250000000001
251.00000000000009,-0.024696
251.2,-0.020764
251.40000000000003,-0.018043
251.6,-0.0162250000000001
251.8,-0.013568
252.00000000000009,-0.013592
252.2,-0.015076
252.40000000000003,-0.015991
252.6,-0.0174390000000002
252.8,-0.021392
253.00000000000009,-0.023967
253.2,-0.025938
253.40000000000003,-0.025476
253.6,-0.026683
253.8,-0.0264730000000001
254.00000000000009,-0.023962
254.2,-0.0200250000000001
254.40000000000003,-0.019301
254.6,-0.017273
254.8,-0.015541
255.00000000000009,-0.0159420000000001
255.2,-0.0187970000000001
255.40000000000003,-0.0215880000000001
255.6,-0.024969
255.8,-0.027824
256.00000000000006,-0.028613
256.2,-0.028286
256.40000000000003,-0.0265680000000001
256.6,-0.0251590000000001
256.8,-0.0235640000000001
257.00000000000006,-0.0231700000000001
257.2,-0.0213340000000001
257.40000000000003,-0.020675
257.6,-0.021587
257.8,-0.0217580000000001
258.00000000000006,-0.022361
258.2,-0.024483
258.40000000000003,-0.025009
258.6,-0.0227240000000001
258.8,-0.0209190000000001
259.00000000000006,-0.019652
259.2,-0.0200660000000001
259.40000000000003,-0.0219990000000001
259.6,-0.0236020000000001
259.8,-0.0235660000000001
260.00000000000006,-0.0225600000000001
260.2,-0.019398
260.40000000000003,-0.0158800000000001
260.6,-0.0133310000000002
260.8,-0.0133580000000002
261.00000000000006,-0.0138330000000002
261.2,-0.0152480000000001
261.40000000000003,-0.0165140000000001
261.6,-0.016944
261.8,-0.0186060000000001
262.00000000000006,-0.0217170000000002
262.2,-0.024493
262.40000000000003,-0.026278
262.6,-0.0291750000000001
262.8,-0.0297120000000001
263.00000000000006,-0.0291570000000001
263.2,-0.025919
263.40000000000003,-0.0241490000000001
263.6,-0.023692
263.8,-0.024664
264.00000000000006,-0.023722
264.2,-0.0249450000000002
264.40000000000003,-0.0244470000000001
264.6,-0.023284
264.8,-0.021244
265.00000000000006,-0.022067
265.2,-0.023322
265.40000000000003,-0.024745
265.6,-0.0243950000000001
265.8,-0.022898
266.00000000000006,-0.0184650000000001
266.2,-0.014906
266.40000000000003,-0.0150650000000001
266.6,-0.016369
266.8,-0.0170070000000002
267.00000000000006,-0.01852
267.2,-0.020842
267.40000000000003,-0.021363
267.6,-0.0206600000000001
267.8,-0.0219880000000001
268.00000000000006,-0.0229830000000001
268.2,-0.0211990000000001
268.40000000000003,-0.0188080000000001
268.6,-0.017719
268.8,-0.015732
269.00000000000006,-0.016116
269.2,-0.0179610000000001
269.40000000000003,-0.020269
269.6,-0.0210940000000001
269.8,-0.023643
270.00000000000006,-0.025217
270.2,-0.0252370000000001
270.40000000000003,-0.024647
270.6,-0.0251830000000001
270.8,-0.022799
271.00000000000006,-0.0200360000000001
271.2,-0.0184740000000001
271.40000000000003,-0.01804
271.6,-0.0180200000000001
271.8,-0.019937
272.00000000000006,-0.0231780000000001
272.2,-0.02492
272.40000000000003,-0.025238
272.6,-0.0249890000000001
272.8,-0.0234940000000001
273.00000000000006,-0.0210320000000001
273.2,-0.0202460000000002
273.40000000000003,-0.0216550000000002
273.6,-0.021765
273.8,-0.02191
274.00000000000006,-0.0212000000000001
274.2,-0.0204570000000001
274.40000000000003,-0.018453
274.6,-0.017576
274.8,-0.016467
275.00000000000006,-0.0164520000000001
275.2,-0.018199
275.40000000000003,-0.0209050000000001
275.6,-0.023838
275.8,-0.027042
276.00000000000006,-0.0302500000000001
276.2,-0.0303060000000001
276.40000000000003,-0.028531
276.6,-0.026194
276.8,-0.0244840000000001
277.00000000000006,-0.022777
277.2,-0.020968
277.40000000000003,-0.019598
277.6,-0.020072
277.8,-0.0218740000000001
278.00000000000006,-0.024145
278.2,-0.027312
278.40000000000003,-0.029916
278.6,-0.02953
278.8,-0.027714
279.00000000000006,-0.0242310000000001
279.2,-0.0199340000000001
279.40000000000003,-0.0165220000000001
279.6,-0.015992
279.8,-0.0146320000000002
280.00000000000006,-0.0149380000000001
280.2,-0.018278
280.40000000000003,-0.021948
280.6,-0.0223330000000001
280.8,-0.0218450000000001
281.00000000000006,-0.0208220000000001
281.2,-0.0171110000000001
281.40000000000003,-0.012955
281.6,-0.0110810000000001
281.8,-0.0115020000000001
282.00000000000006,-0.010939
282.2,-0.0131080000000001
282.40000000000003,-0.0146980000000001
282.6,-0.0148410000000001
282.8,-0.0130260000000002
283.00000000000006,-0.0136280000000001
283.2,-0.013452
283.40000000000003,-0.0134230000000001
283.6,-0.0154820000000002
283.8,-0.0190430000000001
284.00000000000006,-0.020321
284.2,-0.0194930000000002
284.40000000000003,-0.0210480000000001
284.6,-0.020899
284.8,-0.0224700000000002
285.00000000000006,-0.023063
285.2,-0.024016
285.40000000000003,-0.0207160000000001
285.6,-0.0194430000000001
285.8,-0.0162840000000001
286.00000000000006,-0.0158720000000001
286.2,-0.016742
286.40000000000003,-0.018963
286.6,-0.0196960000000001
286.8,-0.0206700000000001
287.00000000000006,-0.022043
287.2,-0.023303
287.40000000000003,-0.023206
287.6,-0.0239260000000001
287.8,-0.0221580000000001
288.00000000000006,-0.019657
288.2,-0.0165520000000001
288.40000000000003,-0.0164570000000001
288.6,-0.0159820000000001
288.8,-0.0168460000000001
289.00000000000006,-0.01652
289.2,-0.01709
289.40000000000003,-0.018005
289.6,-0.0188380000000001
289.8,-0.0204980000000001
290.00000000000006,-0.0235290000000001
290.2,-0.025838
290.40000000000003,-0.0253310000000002
290.6,-0.023374
290.8,-0.020796
291.00000000000006,-0.0185970000000001
291.2,-0.0158140000000002
291.40000000000003,-0.0167600000000001
291.6,-0.0188210000000002
291.8,-0.0223280000000001
292.00000000000006,-0.024728
292.2,-0.0280690000000001
292.40000000000003,-0.0280980000000001
292.6,-0.0269030000000001
292.8,-0.025514
293.00000000000006,-0.0233430000000001
293.2,-0.0205410000000001
293.40000000000003,-0.020734
293.6,-0.0233700000000001
293.8,-0.0244790000000001
294.00000000000006,-0.025171
294.2,-0.025074
294.40000000000003,-0.0232590000000001
294.6,-0.021074
294.8,-0.0190430000000001
295.00000000000006,-0.0177930000000001
295.2,-0.0169760000000001
295.40000000000003,-0.0168920000000001
295.6,-0.016275
295.8,-0.017646
296.00000000000006,-0.018809
296.2,-0.021892
296.40000000000003,-0.023719
296.6,-0.026288
296.8,-0.0252150000000002
297.00000000000006,-0.0257230000000001
297.2,-0.023895
297.40000000000003,-0.021482
297.6,-0.018763
297.8,-0.0183870000000001
298.00000000000006,-0.018127
298.2,-0.019268
298.40000000000003,-0.0215830000000001
298.6,-0.0220680000000002
298.8,-0.02098
299.00000000000006,-0.0176500000000001
299.2,-0.0152040000000002
299.40000000000003,-0.0141
299.6,-0.014094
299.8,-0.014855
299.99999999999994,-0.0162060000000001
300.2,-0.0175420000000001
300.3999999999999,-0.018685
300.6,-0.0182120000000001
300.8,-0.0166440000000001
300.99999999999994,-0.0140880000000001
301.2,-0.012126
301.3999999999999,-0.012806
301.6,-0.0129770000000002
301.8,-0.016229
301.99999999999994,-0.0181030000000002
302.2,-0.0194560000000001
302.3999999999999,-0.0178120000000001
302.6,-0.0178100000000001
302.8,-0.0157250000000002
302.99999999999994,-0.0159790000000001
303.2,-0.012955
303.3999999999999,-0.0096340000000001
303.6,-0.0083370000000002
303.8,-0.008685
303.99999999999994,-0.0080600000000001
304.2,-0.0089230000000002
304.3999999999999,-0.009354
304.6,-0.0098310000000001
304.8,-0.0110510000000001
304.99999999999994,-0.012936
305.2,-0.0152370000000001
305.3999999999999,-0.0171480000000001
305.6,-0.0163170000000001
305.8,-0.014461
305.99999999999994,-0.012925
306.2,-0.0126590000000001
306.3999999999999,-0.0132210000000001
306.6,-0.014561
306.8,-0.015044
306.99999999999994,-0.0149110000000001
307.2,-0.013708
307.3999999999999,-0.0145530000000002
307.6,-0.0140650000000002
307.8,-0.0140140000000001
307.99999999999994,-0.0132280000000002
308.2,-0.0116260000000001
308.3999999999999,-0.0102970000000002
308.6,-0.0110890000000001
308.8,-0.011249
308.99999999999994,-0.0096060000000002
309.2,-0.0091850000000002
309.3999999999999,-0.0075790000000002
309.6,-0.0056340000000001
309.8,-0.0059840000000002
309.99999999999994,-0.0082350000000002
310.2,-0.0105330000000001
310.3999999999999,-0.0112790000000002
310.6,-0.0112990000000001
310.8,-0.0084280000000001
310.99999999999994,-0.008461
311.2,-0.0099770000000001
311.3999999999999,-0.0138100000000001
311.6,-0.0159120000000001
311.8,-0.0206460000000001
311.99999999999994,-0.0232150000000002
312.2,-0.0227340000000002
312.3999999999999,-0.0207350000000001
312.6,-0.0200460000000002
312.8,-0.016717
312.99999999999994,-0.014013
313.2,-0.0110050000000001
313.3999999999999,-0.011532
313.6,-0.0115060000000002
313.8,-0.0132390000000002
313.99999999999994,-0.013281
314.2,-0.0162350000000002
314.3999999999999,-0.0149100000000002
314.6,-0.0165510000000002
314.8,-0.0182890000000002
314.99999999999994,-0.0205020000000002
315.2,-0.0211350000000001
315.3999999999999,-0.0233740000000002
315.6,-0.0234930000000002
315.8,-0.023651
315.99999999999994,-0.024229
316.2,-0.0252390000000002
316.3999999999999,-0.0264590000000002
316.6,-0.0264540000000002
316.8,-0.0254610000000001
316.99999999999994,-0.0240150000000001
317.2,-0.022423
317.3999999999999,-0.0210190000000001
317.6,-0.021246
317.8,-0.020898
317.99999999999994,-0.0192010000000002
318.2,-0.0176960000000001
318.3999999999999,-0.015373
318.6,-0.012739
318.8,-0.0110830000000001
318.99999999999994,-0.01248
319.2,-0.014717
319.3999999999999,-0.0146920000000001
319.6,-0.0164300000000001
319.8,-0.0178960000000001
319.99999999999994,-0.0184700000000002
320.2,-0.016963
320.3999999999999,-0.0185140000000001
320.6,-0.017967
320.8,-0.017381
320.99999999999994,-0.016588
321.2,-0.0170290000000001
321.3999999999999,-0.0159190000000002
321.6,-0.0168960000000002
321.8,-0.0187300000000001
321.99999999999994,-0.0191890000000001
322.2,-0.0195500000000001
322.3999999999999,-0.018059
322.6,-0.0134750000000001
322.8,-0.0069910000000001
322.99999999999994,-0.0046330000000001
323.2,-0.004388
323.3999999999999,-0.0073940000000001
323.6,-0.0121470000000001
323.8,-0.0174230000000001
323.99999999999994,-0.0216630000000002
324.2,-0.0245190000000001
324.3999999999999,-0.0249500000000002
324.6,-0.0243460000000002
324.8,-0.0244320000000002
324.99999999999994,-0.0205780000000002
325.2,-0.0156570000000002
325.3999999999999,-0.0137500000000001
325.6,-0.01306
325.8,-0.01218
325.99999999999994,-0.013524
326.2,-0.0154850000000001
326.3999999999999,-0.0158230000000001
326.6,-0.014963
326.8,-0.0132240000000001
326.99999999999994,-0.0112090000000002
327.2,-0.0105270000000001
327.3999999999999,-0.0097230000000001
327.6,-0.0112470000000002
327.8,-0.0151180000000001
327.99999999999994,-0.0187100000000002
328.2,-0.017986
328.3999999999999,-0.0183240000000002
328.6,-0.0177220000000002
328.8,-0.0164000000000001
328.99999999999994,-0.0157820000000001
329.2,-0.0188600000000001
329.3999999999999,-0.0212470000000002
329.6,-0.0218110000000002
329.8,-0.0205720000000002
329.99999999999994,-0.0179470000000001
330.2,-0.0161080000000002
330.3999999999999,-0.014507
330.6,-0.0138990000000001
330.8,-0.0154040000000001
330.99999999999994,-0.0163110000000001
331.2,-0.0147330000000001
331.3999999999999,-0.013735
331.6,-0.0142810000000002
331.8,-0.0130880000000002
331.99999999999994,-0.0149150000000002
332.2,-0.0185980000000001
332.3999999999999,-0.021781
332.6,-0.023762
332.8,-0.0255250000000002
332.99999999999994,-0.0254590000000001
333.2,-0.0232400000000001
333.3999999999999,-0.018836
333.6,-0.016226
333.8,-0.0131770000000002
333.99999999999994,-0.0114140000000002
334.2,-0.0116370000000001
334.3999999999999,-0.0140850000000001
334.6,-0.01401
334.8,-0.0144600000000001
334.99999999999994,-0.013435
335.2,-0.0108340000000002
335.3999999999999,-0.0085080000000001
335.6,-0.0065570000000001
335.8,-0.0069230000000002
335.99999999999994,-0.0095480000000001
336.2,-0.0116420000000001
336.3999999999999,-0.0139200000000001
336.6,-0.0152100000000001
336.8,-0.0175260000000001
336.99999999999994,-0.017808
337.2,-0.019049
337.3999999999999,-0.0174790000000002
337.6,-0.0185280000000001
337.8,-0.0190210000000001
337.99999999999994,-0.019557
338.2,-0.021006
338.3999999999999,-0.0235130000000001
338.6,-0.0252020000000001
338.8,-0.0232240000000001
338.99999999999994,-0.022925
339.2,-0.0220650000000002
339.3999999999999,-0.022296
339.6,-0.0214790000000002
339.8,-0.0238260000000001
339.99999999999994,-0.0250990000000002
340.2,-0.0241900000000001
340.3999999999999,-0.0219340000000001
340.6,-0.0212810000000001
340.8,-0.0205490000000001
340.99999999999994,-0.0181930000000001
341.2,-0.0157760000000002
341.3999999999999,-0.0146880000000002
341.6,-0.013937
341.8,-0.0124940000000002
341.99999999999994,-0.0135530000000001
342.2,-0.0184200000000001
342.3999999999999,-0.0218290000000001
342.6,-0.0228300000000001
342.8,-0.0240530000000001
342.99999999999994,-0.0249810000000001
343.2,-0.0240440000000001
343.3999999999999,-0.025565
343.6,-0.0267760000000001
343.8,-0.0269570000000001
343.99999999999994,-0.0263170000000001
344.2,-0.023354
344.3999999999999,-0.0190570000000001
344.6,-0.017929
344.8,-0.0181690000000001
344.99999999999994,-0.0184780000000002
345.2,-0.020812
345.3999999999999,-0.0231530000000002
345.6,-0.022531
345.8,-0.0208720000000002
345.99999999999994,-0.0191780000000001
346.2,-0.0198990000000001
346.3999999999999,-0.019176
346.6,-0.0197250000000002
346.8,-0.0203130000000002
346.99999999999994,-0.0203010000000001
347.2,-0.01906
347.3999999999999,-0.0185450000000002
347.6,-0.0186720000000002
347.8,-0.0184650000000001
347.99999999999994,-0.016944
348.2,-0.0147870000000001
348.3999999999999,-0.015071
348.6,-0.014196
348.8,-0.0139010000000001
348.99999999999994,-0.015659
349.2,-0.017149
349.3999999999999,-0.016593
349.6,-0.0173780000000001
349.8,-0.0179630000000001
349.99999999999994,-0.0172970000000001
350.2,-0.0181600000000001
350.3999999999999,-0.018439
350.6,-0.0166290000000002
350.8,-0.0146610000000002
350.99999999999994,-0.0150120000000002
351.2,-0.013886
351.3999999999999,-0.0129570000000001
351.6,-0.013797
351.8,-0.014879
351.99999999999994,-0.0152440000000002
352.2,-0.0152370000000001
352.3999999999999,-0.014901
352.6,-0.0144650000000001
352.8,-0.015716
352.99999999999994,-0.0161860000000002
353.2,-0.0171100000000001
353.3999999999999,-0.0183520000000001
353.6,-0.0189310000000002
353.8,-0.0181460000000002
353.99999999999994,-0.0181520000000001
354.2,-0.0180280000000001
354.3999999999999,-0.0183560000000002
354.6,-0.0186050000000002
354.8,-0.0168910000000002
354.99999999999994,-0.015481
355.2,-0.012744
355.3999999999999,-0.012191
355.6,-0.0116690000000001
355.8,-0.0130960000000002
355.99999999999994,-0.013519
356.2,-0.0179950000000002
356.3999999999999,-0.0196090000000002
356.6,-0.0217720000000001
356.8,-0.0227000000000001
356.99999999999994,-0.0241690000000001
357.2,-0.0217190000000002
357.3999999999999,-0.019616
357.6,-0.0167270000000001
357.8,-0.0163750000000002
357.99999999999994,-0.0168780000000001
358.2,-0.0187240000000001
358.3999999999999,-0.0225080000000001
358.6,-0.026531
358.8,-0.028396
358.99999999999994,-0.0270910000000001
359.2,-0.0253200000000002
359.3999999999999,-0.0211800000000002
359.6,-0.017632
359.8,-0.0145400000000002
359.99999999999994,-0.0141060000000001
360.2,-0.0152700000000001
360.3999999999999,-0.0178610000000001
360.6,-0.0198200000000001
360.8,-0.0226710000000001
361.0,-0.0251470000000002
361.2,-0.0267030000000001
361.3999999999999,-0.0270770000000002
361.6,-0.027813
361.8,-0.0257200000000001
362.0,-0.0234690000000001
362.2,-0.0228380000000001
362.3999999999999,-0.0227180000000002
362.6,-0.0233440000000002
362.8,-0.0256490000000002
363.0,-0.025651
363.2,-0.0254290000000001
363.3999999999999,-0.0244650000000001
363.6,-0.0217920000000002
363.8,-0.0182860000000002
364.0,-0.0173420000000001
364.2,-0.0145630000000001
364.3999999999999,-0.0126780000000001
364.6,-0.0128670000000001
364.8,-0.0157730000000002
365.0,-0.019068
365.2,-0.0221190000000002
365.3999999999999,-0.0243110000000001
365.6,-0.0252710000000002
365.8,-0.024674
366.0,-0.0227070000000002
366.2,-0.021184
366.3999999999999,-0.021079
366.6,-0.0212040000000002
366.8,-0.0195420000000001
367.0,-0.0171040000000002
367.2,-0.016758
367.3999999999999,-0.0154670000000001
367.6,-0.0140600000000001
367.8,-0.014882
368.0,-0.0168830000000002
368.2,-0.0161000000000002
368.3999999999999,-0.0157170000000002
368.6,-0.014839
368.8,-0.0155910000000001
369.0,-0.0164170000000001
369.2,-0.017192
369.3999999999999,-0.0172430000000001
369.6,-0.0208260000000002
369.8,-0.0231560000000001
370.0,-0.0241320000000002
370.2,-0.023889
370.3999999999999,-0.0252160000000001
370.6,-0.0245540000000001
370.8,-0.024045
371.0,-0.0257020000000001
371.2,-0.0289560000000002
371.3999999999999,-0.0302660000000001
371.6,-0.0289380000000001
371.8,-0.0264160000000002
372.0,-0.0252940000000001
372.2,-0.0253540000000001
372.3999999999999,-0.0250650000000001
372.6,-0.0271100000000001
372.8,-0.0274130000000001
373.0,-0.02462
373.2,-0.0218180000000001
373.3999999999999,-0.021862
373.6,-0.0196820000000002
373.8,-0.0187000000000001
374.0,-0.0209240000000001
374.2,-0.0207240000000001
374.3999999999999,-0.0185540000000001
374.6,-0.017195
374.8,-0.0160350000000002
375.0,-0.0127910000000002
375.2,-0.0123390000000001
375.3999999999999,-0.011381
375.6,-0.012555
375.8,-0.014137
376.0,-0.0174450000000001
376.2,-0.0206490000000001
376.3999999999999,-0.0255070000000001
376.6,-0.0281520000000001
376.8,-0.0301240000000002
377.0,-0.0289800000000002
377.2,-0.0281760000000002
377.3999999999999,-0.0264490000000001
377.6,-0.0244550000000001
377.8,-0.0217330000000002
378.0,-0.0211080000000001
378.2,-0.0204510000000002
378.3999999999999,-0.0190550000000002
378.6,-0.018442
378.8,-0.018202
379.0,-0.0189650000000001
379.2,-0.0179490000000002
379.3999999999999,-0.0181220000000001
379.6,-0.021584
379.8,-0.0253290000000001
380.0,-0.027333
380.2,-0.0284840000000001
380.3999999999999,-0.028369
380.6,-0.0267530000000002
380.8,-0.0263810000000002
381.0,-0.0275880000000001
381.2,-0.0292150000000002
381.3999999999999,-0.031894
381.6,-0.031044
381.8,-0.0303000000000002
382.0,-0.0285900000000001
382.2,-0.026755
382.3999999999999,-0.0257360000000002
382.6,-0.0246440000000001
382.8,-0.0233090000000002
383.0,-0.0204730000000001
383.2,-0.0204100000000002
383.3999999999999,-0.020561
383.6,-0.0223940000000002
383.8,-0.0242840000000001
384.0,-0.0282570000000002
384.2,-0.0310240000000001
384.3999999999999,-0.0332230000000002
384.6,-0.0340580000000001
384.8,-0.0335500000000001
385.0,-0.030901
385.2,-0.028202
385.3999999999999,-0.024145
385.6,-0.0219680000000002
385.8,-0.0204440000000001
386.0,-0.019924
386.2,-0.019171
386.3999999999999,-0.0199630000000001
386.6,-0.0185990000000002
386.8,-0.0188070000000002
387.0,-0.0188700000000001
387.2,-0.017473
387.3999999999999,-0.0166380000000001
387.6,-0.0189920000000001
387.8,-0.0217020000000001
388.0,-0.023503
388.2,-0.027033
388.3999999999999,-0.0264380000000001
388.6,-0.025735
388.8,-0.0237100000000001
389.0,-0.0230000000000001
389.2,-0.0225360000000001
389.3999999999999,-0.025341
389.6,-0.0257100000000001
389.8,-0.024353
390.0,-0.024099
390.2,-0.0235090000000002
390.3999999999999,-0.0211090000000002
390.6,-0.0215630000000002
390.8,-0.0226860000000002
391.0,-0.0220280000000001
391.2,-0.0228750000000002
391.3999999999999,-0.024866
391.6,-0.0232610000000001
391.8,-0.0209260000000002
392.0,-0.0225050000000002
392.2,-0.0225780000000002
392.3999999999999,-0.023103
392.6,-0.024601
392.8,-0.0276400000000001
393.0,-0.0296660000000001
393.2,-0.032666
393.3999999999999,-0.0344330000000001
393.6,-0.0370130000000001
393.8,-0.0394170000000002
394.0,-0.0400060000000002
394.2,-0.0363770000000001
394.3999999999999,-0.0338760000000002
394.6,-0.0311640000000001
394.8,-0.028369
395.0,-0.0246920000000001
395.2,-0.0249220000000001
395.3999999999999,-0.0241140000000001
395.6,-0.022998
395.8,-0.02316
396.0,-0.023651
396.2,-0.0230120000000002
396.3999999999999,-0.0238500000000001
396.6,-0.0257060000000002
396.8,-0.0284210000000002
397.0,-0.0295
397.2,-0.02892
397.3999999999999,-0.0274600000000002
397.6,-0.0258450000000001
397.8,-0.0219740000000001
398.0,-0.0203710000000001
398.2,-0.0213160000000001
398.3999999999999,-0.0220500000000001
398.6,-0.0236
398.8,-0.026113
399.0,-0.02916
399.2,-0.0308810000000001
399.3999999999999,-0.0320890000000002
399.6,-0.0321250000000001
399.8,-0.0296140000000002
400.0,-0.0272860000000001
400.2,-0.0260700000000002
400.3999999999999,-0.0259100000000001
400.6,-0.0240660000000001
400.8,-0.0248540000000001
401.0,-0.024731
401.2,-0.0246180000000002
401.3999999999999,-0.0245430000000002
401.6,-0.0264390000000001
401.8,-0.0264110000000001
402.0,-0.026399
402.2,-0.0248230000000002
402.3999999999999,-0.0242320000000002
402.6,-0.0233130000000001
402.8,-0.0244470000000001
403.0,-0.0253400000000001
403.2,-0.0273510000000001
403.3999999999999,-0.0288910000000002
403.6,-0.031411
403.8,-0.0326110000000001
404.0,-0.0314500000000002
404.2,-0.0298230000000001
404.3999999999999,-0.0273470000000002
404.6,-0.0245440000000001
404.8,-0.0238840000000002
405.0,-0.0259500000000001
405.2,-0.0281930000000001
405.3999999999999,-0.0306450000000002
405.6,-0.0312830000000001
405.8,-0.0315450000000001
406.0,-0.0321800000000001
406.2,-0.0345730000000001
406.3999999999999,-0.03723
406.6,-0.0403310000000001
406.8,-0.039676
407.0,-0.0359830000000001
407.2,-0.0305220000000001
407.3999999999999,-0.0267780000000001
407.6,-0.0257180000000001
407.8,-0.0267490000000001
408.0,-0.0298560000000001
408.2,-0.0343220000000001
408.3999999999999,-0.0353350000000001
408.6,-0.0353350000000001
408.8,-0.0356470000000002
409.0,-0.035619
409.2,-0.0339310000000001
409.3999999999999,-0.033975
409.6,-0.033063
409.8,-0.0306590000000002
410.0,-0.028693
410.2,-0.0254500000000001
410.3999999999999,-0.0216610000000001
410.6,-0.0190840000000001
410.8,-0.0193090000000002
411.0,-0.0184370000000002
411.2,-0.0218100000000001
411.3999999999999,-0.0268680000000001
411.6,-0.030682
411.8,-0.0313020000000001
412.0,-0.034056
412.2,-0.0331530000000002
412.3999999999999,-0.0297600000000002
412.6,-0.0277980000000002
412.8,-0.029028
413.0,-0.0300610000000001
413.2,-0.0317100000000001
413.3999999999999,-0.0335130000000001
413.6,-0.0321980000000001
413.8,-0.0288070000000002
414.0,-0.0246720000000002
414.2,-0.0224750000000002
414.3999999999999,-0.022979
414.6,-0.0253210000000001
414.8,-0.0268240000000001
415.0,-0.0278690000000001
415.2,-0.0277420000000001
415.3999999999999,-0.0274830000000001
415.6,-0.0276310000000001
415.8,-0.0287710000000001
416.0,-0.0279730000000002
416.2,-0.0282630000000001
416.3999999999999,-0.0285940000000002
416.6,-0.0282620000000002
416.8,-0.0294560000000001
417.0,-0.034113
417.2,-0.0362860000000002
417.3999999999999,-0.0366540000000001
417.6,-0.0378800000000001
417.8,-0.0381820000000001
418.0,-0.0366670000000002
418.2,-0.0365750000000002
418.3999999999999,-0.0349840000000001
418.6,-0.0326970000000002
418.8,-0.0313240000000001
419.0,-0.032148
419.2,-0.0321300000000002
419.3999999999999,-0.0318990000000001
419.6,-0.0321960000000001
419.8,-0.0312510000000001
420.0,-0.0296880000000001
420.2,-0.0273480000000001
420.3999999999999,-0.0284950000000001
420.6,-0.0299540000000002
420.8,-0.0311960000000002
421.0,-0.0301970000000002
421.2,-0.0294020000000001
421.3999999999999,-0.0272350000000001
421.6,-0.0255530000000001
421.8,-0.024207
422.0,-0.024415
422.2,-0.02492
422.3999999999999,-0.0252120000000002
422.6,-0.0243120000000001
422.8,-0.0243760000000001
423.0,-0.0237440000000002
423.2,-0.0264470000000001
423.3999999999999,-0.0295470000000002
423.6,-0.0338580000000001
423.8,-0.036137
424.0,-0.038477
424.2,-0.0367360000000001
424.3999999999999,-0.0348870000000001
424.6,-0.0314720000000001
424.8,-0.0308300000000001
425.0,-0.0309530000000002
425.2,-0.0310070000000002
425.3999999999999,-0.0311910000000001
425.6,-0.0310110000000001
425.8,-0.030736
426.0,-0.0282900000000001
426.2,-0.0301920000000002
426.3999999999999,-0.0293000000000001
426.6,-0.0292960000000002
426.8,-0.0277300000000002
427.0,-0.0298360000000001
427.2,-0.029079
427.3999999999999,-0.029527
427.6,-0.0281600000000001
427.8,-0.0290460000000001
428.0,-0.0275660000000002
428.2,-0.02536
428.3999999999999,-0.0246030000000001
428.6,-0.0259070000000001
428.8,-0.0248810000000001
429.0,-0.0239490000000002
429.2,-0.025894
429.3999999999999,-0.0273900000000002
429.6,-0.027959
429.8,-0.0285990000000002
430.0,-0.032599
430.2,-0.0323670000000002
430.3999999999999,-0.0318520000000002
430.6,-0.0309700000000001
430.8,-0.031176
431.0,-0.0282090000000001
431.2,-0.0278850000000001
431.3999999999999,-0.0287460000000001
431.6,-0.0305350000000002
431.8,-0.0319220000000002
432.0,-0.0313360000000002
432.2,-0.0310610000000002
432.3999999999999,-0.0319450000000001
432.6,-0.0331800000000002
432.8,-0.0314990000000001
433.0,-0.0302040000000001
433.2,-0.0284660000000001
433.3999999999999,-0.0262810000000002
433.6,-0.0251280000000002
433.8,-0.0270070000000002
434.0,-0.028763
434.2,-0.0306670000000002
434.3999999999999,-0.030491
434.6,-0.0306790000000001
434.8,-0.0300920000000002
435.0,-0.0328790000000001
435.2,-0.0351300000000001
435.3999999999999,-0.0366350000000001
435.6,-0.0346940000000002
435.8,-0.032882
436.0,-0.0296680000000002
436.2,-0.0281200000000001
436.3999999999999,-0.0272880000000002
436.6,-0.0272210000000001
436.8,-0.0273120000000002
437.0,-0.0284740000000001
437.2,-0.0295180000000001
437.3999999999999,-0.0322140000000001
437.6,-0.0337330000000002
437.8,-0.0355980000000002
438.0,-0.0337360000000002
438.2,-0.0311850000000002
438.3999999999999,-0.026963
438.6,-0.0265330000000001
438.8,-0.0249640000000002
439.0,-0.025951
439.2,-0.0259370000000001
439.3999999999999,-0.027986
439.6,-0.028207
439.8,-0.030431
440.0,-0.0317740000000001
440.2,-0.0325910000000002
440.3999999999999,-0.0329340000000002
440.6,-0.0338630000000002
440.8,-0.0336070000000001
441.0,-0.0348150000000002
441.2,-0.037643
441.3999999999999,-0.039846
441.6,-0.0416
441.8,-0.041708
442.0,-0.040175
442.2,-0.03594
442.3999999999999,-0.0336990000000001
442.6,-0.0316420000000001
442.8,-0.0314370000000001
443.0,-0.0310850000000002
443.2,-0.0333730000000001
443.3999999999999,-0.0329300000000001
443.6,-0.030858
443.8,-0.026947
444.0,-0.025368
444.2,-0.0244740000000001
444.3999999999999,-0.0228920000000001
444.6,-0.0229290000000002
444.8,-0.025519
445.0,-0.0272270000000001
445.2,-0.0287720000000002
445.3999999999999,-0.0321900000000001
445.6,-0.0363540000000002
445.8,-0.0371730000000001
446.0,-0.0359310000000001
446.2,-0.0343900000000001
446.3999999999999,-0.0332160000000001
446.6,-0.0322470000000001
446.8,-0.0332920000000001
447.0,-0.0342110000000002
447.2,-0.0332930000000002
447.3999999999999,-0.0321540000000002
447.6,-0.0293160000000001
447.8,-0.0276
448.0,-0.0294160000000001
448.2,-0.0324000000000002
448.3999999999999,-0.0332310000000002
448.6,-0.034415
448.8,-0.033198
449.0,-0.0301930000000001
449.2,-0.0295100000000001
449.3999999999999,-0.0291590000000001
449.6,-0.0301850000000001
449.8,-0.0329490000000001
450.0,-0.0348030000000001
450.2,-0.0327440000000001
450.3999999999999,-0.033689
450.6,-0.034839
450.8,-0.035813
451.0,-0.0365430000000002
451.2,-0.0381850000000001
451.3999999999999,-0.0371370000000002
451.6,-0.0345370000000002
451.8,-0.0314860000000001
452.0,-0.0299000000000002
452.2,-0.0300190000000002
452.3999999999999,-0.0307250000000001
452.6,-0.030871
452.8,-0.0320110000000002
453.0,-0.035141
453.2,-0.0377410000000002
453.3999999999999,-0.03967
453.6,-0.0410490000000001
453.8,-0.0403940000000002
454.0,-0.038326
454.2,-0.0368600000000001
454.3999999999999,-0.035754
454.6,-0.0343380000000002
454.8,-0.0355610000000001
455.0,-0.0383190000000002
455.2,-0.0378650000000002
455.3999999999999,-0.0375830000000001
455.6,-0.0383080000000002
455.8,-0.0374320000000001
456.0,-0.0354010000000002
456.2,-0.0367000000000001
456.3999999999999,-0.037063
456.6,-0.037881
456.8,-0.0380230000000001
457.0,-0.0385090000000001
457.2,-0.0389000000000001
457.3999999999999,-0.0390780000000001
457.6,-0.03892
457.8,-0.0397030000000002
458.0,-0.0393560000000001
458.2,-0.0360630000000001
458.3999999999999,-0.0351230000000002
458.6,-0.0361270000000002
458.8,-0.0373530000000001
459.0,-0.0375720000000001
459.2,-0.0379260000000001
459.3999999999999,-0.0369610000000002
459.6,-0.0356100000000001
459.8,-0.0368800000000002
460.0,-0.036558
460.2,-0.038275
460.3999999999999,-0.039171
460.6,-0.0409940000000002
460.8,-0.0372510000000001
461.0,-0.0351750000000001
461.2,-0.0357800000000001
461.3999999999999,-0.0389100000000002
461.6,-0.040696
461.8,-0.043773
462.0,-0.0454510000000001
462.2,-0.0437440000000002
462.3999999999999,-0.040415
462.6,-0.0356510000000001
462.8,-0.034593
463.0,-0.036561
463.2,-0.0370030000000001
463.3999999999999,-0.0354770000000002
463.6,-0.0344900000000001
463.8,-0.0339180000000001
464.0,-0.033025
464.2,-0.0338330000000002
464.3999999999999,-0.0363760000000001
464.6,-0.0397050000000001
464.8,-0.0413280000000002
465.0,-0.0408710000000001
465.2,-0.039662
465.3999999999999,-0.0375080000000001
465.6,-0.0349060000000001
465.8,-0.0309500000000002
466.0,-0.0285400000000002
466.2,-0.0277110000000002
466.3999999999999,-0.0267030000000001
466.6,-0.0275670000000001
466.8,-0.0283200000000001
467.0,-0.0276050000000001
467.2,-0.0277490000000002
467.3999999999999,-0.0309650000000001
467.6,-0.0345380000000001
467.8,-0.0375690000000001
468.0,-0.0411760000000001
468.2,-0.0419790000000002
468.3999999999999,-0.0412030000000001
468.6,-0.0375860000000001
468.8,-0.0354160000000001
469.0,-0.0347250000000001
469.2,-0.0367870000000001
469.3999999999999,-0.0393040000000002
469.6,-0.0413550000000002
469.8,-0.0437340000000001
470.0,-0.044286
470.2,-0.0425140000000001
470.3999999999999,-0.0382380000000002
470.6,-0.0344790000000001
470.8,-0.0318760000000002
471.0,-0.0315290000000001
471.2,-0.0312990000000001
471.3999999999999,-0.0306750000000002
471.6,-0.0324840000000001
471.8,-0.032836
472.0,-0.0338610000000001
472.2,-0.0352740000000002
472.3999999999999,-0.0389640000000002
472.6,-0.03933
472.8,-0.039635
473.0,-0.038766
473.2,-0.0383660000000001
473.3999999999999,-0.0394820000000002
473.6,-0.0415510000000001
473.8,-0.0422820000000001
474.0,-0.0425470000000001
474.2,-0.0435
474.3999999999999,-0.0440170000000001
474.6,-0.043703
474.8,-0.042275
475.0,-0.0407670000000002
475.2,-0.0389840000000001
475.3999999999999,-0.0356370000000001
475.6,-0.0350130000000001
475.8,-0.036858
476.0,-0.0392320000000001
476.2,-0.04072
476.3999999999999,-0.0408700000000001
476.6,-0.0400250000000002
476.8,-0.0386060000000001
477.0,-0.0378070000000001
477.2,-0.0367080000000001
477.3999999999999,-0.0399180000000001
477.6,-0.0410590000000001
477.8,-0.0423620000000002
478.0,-0.0402740000000001
478.2,-0.0393270000000001
478.3999999999999,-0.036812
478.6,-0.0369000000000001
478.8,-0.0355910000000001
479.0,-0.0391130000000001
479.2,-0.04143
479.3999999999999,-0.0404840000000001
479.6,-0.0381960000000001
479.8,-0.0386670000000002
480.0,-0.0341280000000001
480.2,-0.03143
480.3999999999999,-0.0318650000000002
480.6,-0.0343080000000002
480.8,-0.035481
481.0,-0.0390290000000002
481.2,-0.0400580000000001
481.3999999999999,-0.0381770000000001
481.6,-0.034272
481.8,-0.032234
482.0,-0.0312420000000002
482.2,-0.0324750000000002
482.3999999999999,-0.0358460000000002
482.6,-0.0374770000000002
482.8,-0.038083
483.0,-0.037562
483.2,-0.0362220000000002
483.3999999999999,-0.0360490000000002
483.6,-0.0377720000000001
483.8,-0.039384
484.0,-0.0407640000000002
484.2,-0.0408080000000001
484.3999999999999,-0.0393750000000001
484.6,-0.0373160000000001
484.8,-0.0346790000000001
485.0,-0.0326330000000001
485.2,-0.0329270000000001
485.3999999999999,-0.0359070000000001
485.6,-0.039913
485.8,-0.0433190000000001
486.0,-0.0454670000000001
486.2,-0.049549
486.3999999999999,-0.050815
486.6,-0.0516400000000001
486.8,-0.0503280000000001
487.0,-0.0487220000000001
487.2,-0.0449610000000002
487.3999999999999,-0.0424280000000001
487.6,-0.0400680000000002
487.8,-0.0391340000000002
488.0,-0.0382650000000002
488.2,-0.0364280000000001
488.3999999999999,-0.0340110000000002
488.6,-0.0332210000000001
488.8,-0.033225
489.0,-0.0339120000000001
489.2,-0.035754
489.3999999999999,-0.0379420000000001
489.6,-0.0391240000000001
489.8,-0.0400630000000001
490.0,-0.039198
490.2,-0.0379560000000001
490.3999999999999,-0.0379020000000001
490.6,-0.0376930000000002
490.8,-0.0380820000000001
491.0,-0.0402460000000002
491.2,-0.0404310000000001
491.3999999999999,-0.039476
491.6,-0.0393210000000001
491.8,-0.0376290000000001
492.0,-0.03702
492.2,-0.038021
492.3999999999999,-0.0376800000000001
492.6,-0.0357630000000002
492.8,-0.0364560000000002
493.0,-0.0366380000000001
493.2,-0.03448
493.3999999999999,-0.0352450000000001
493.6,-0.036121
493.8,-0.0369240000000001
494.0,-0.0370380000000001
494.2,-0.0385860000000002
494.3999999999999,-0.037322
494.6,-0.0361660000000001
494.8,-0.0346570000000001
495.0,-0.0350590000000001
495.2,-0.0366460000000001
495.3999999999999,-0.0389670000000001
495.6,-0.0403190000000002
495.8,-0.0431690000000002
496.0,-0.044766
496.2,-0.042793
496.3999999999999,-0.0416430000000001
496.6,-0.041986
496.8,-0.0408650000000001
497.0,-0.0384360000000001
497.2,-0.0391830000000001
497.3999999999999,-0.041244
497.6,-0.0435040000000002
497.8,-0.0432500000000002
498.0,-0.0416290000000001
498.2,-0.0385020000000002
498.3999999999999,-0.0353290000000001
498.6,-0.0320070000000001
498.8,-0.0329300000000001
499.0,-0.0349670000000001
499.2,-0.0398300000000002
499.3999999999999,-0.0416430000000001
499.6,-0.044183
499.8,-0.0441730000000002
500.0,-0.044361
500.2,-0.041198
500.3999999999999,-0.0373230000000002
500.6,-0.0321850000000001
500.8,-0.0288240000000001
501.0,-0.0271820000000002
501.2,-0.027495
501.3999999999999,-0.0302430000000002
501.6,-0.0330290000000002
501.8,-0.035225
502.0,-0.0375040000000002
502.2,-0.041681
502.3999999999999,-0.0445310000000001
502.6,-0.047924
502.8,-0.0499600000000002
503.0,-0.050399
503.2,-0.0485270000000002
503.3999999999999,-0.0482220000000002
503.6,-0.048453
503.8,-0.0486730000000001
504.0,-0.0490220000000001
504.2,-0.0495320000000001
504.3999999999999,-0.0486860000000002
504.6,-0.0452000000000001
504.8,-0.0429960000000002
505.0,-0.0398720000000001
505.2,-0.0361930000000001
505.3999999999999,-0.0326920000000001
505.6,-0.0317130000000001
505.8,-0.031827
506.0,-0.0344980000000001
506.2,-0.0376560000000001
506.3999999999999,-0.0416360000000002
506.6,-0.0452180000000002
506.8,-0.0461060000000002
507.0,-0.0454350000000001
507.2,-0.043398
507.3999999999999,-0.0408330000000001
507.6,-0.0380260000000001
507.8,-0.037257
508.0,-0.0346180000000002
508.2,-0.0348650000000001
508.3999999999999,-0.0363060000000001
508.6,-0.0376370000000001
508.8,-0.0371730000000001
509.0,-0.0398830000000001
509.2,-0.0420770000000001
509.3999999999999,-0.0427940000000002
509.6,-0.042788
509.8,-0.044016
510.0,-0.0440370000000001
510.2,-0.0440740000000001
510.3999999999999,-0.044761
510.6,-0.0443760000000001
510.8,-0.0431960000000002
511.0,-0.0434700000000001
511.2,-0.0434770000000002
511.3999999999999,-0.0426990000000002
511.6,-0.041862
511.8,-0.0403500000000001
512.0,-0.0388670000000002
512.2,-0.0366910000000002
512.3999999999999,-0.035781
512.5999999999999,-0.0391780000000001
512.8,-0.043276
513.0,-0.04407
513.2,-0.045155
513.3999999999999,-0.0455800000000001
513.5999999999999,-0.0428070000000002
513.8,-0.0379680000000002
514.0,-0.037028
514.2,-0.03624
514.3999999999999,-0.0376720000000001
514.5999999999999,-0.038334
514.8,-0.040083
515.0,-0.0395520000000002
515.2,-0.0399830000000001
515.3999999999999,-0.0392040000000002
515.5999999999999,-0.0411750000000001
515.8,-0.0425300000000001
516.0,-0.0455870000000002
516.2,-0.0464540000000002
516.3999999999999,-0.0453460000000001
516.5999999999999,-0.0440190000000002
516.8,-0.0430260000000002
517.0,-0.041476
517.2,-0.040156
517.3999999999999,-0.0397230000000001
517.5999999999999,-0.0386370000000002
517.8,-0.039738
518.0,-0.0411480000000001
518.2,-0.0447350000000001
518.3999999999999,-0.0474180000000001
518.5999999999999,-0.0480710000000002
518.8,-0.046461
519.0,-0.0451580000000002
519.2,-0.0415740000000002
519.3999999999999,-0.0381010000000001
519.5999999999999,-0.0369590000000001
519.8,-0.0371690000000002
520.0,-0.0377340000000001
520.2,-0.0399460000000002
520.3999999999999,-0.0424490000000001
520.5999999999999,-0.0452860000000001
520.8,-0.047144
521.0,-0.0474080000000001
521.2,-0.0466470000000001
521.3999999999999,-0.0479110000000002
521.5999999999999,-0.0459560000000001
521.8,-0.0429330000000001
522.0,-0.041384
522.2,-0.0396020000000001
522.3999999999999,-0.0368710000000001
522.5999999999999,-0.036534
522.8,-0.0390510000000001
523.0,-0.038971
523.2,-0.038782
523.3999999999999,-0.0379040000000001
523.5999999999999,-0.0364360000000001
523.8,-0.0357060000000002
524.0,-0.0366560000000002
524.2,-0.0357520000000002
524.3999999999999,-0.035117
524.5999999999999,-0.0348210000000002
524.8,-0.0330300000000001
525.0,-0.0325440000000001
525.2,-0.0366560000000002
525.3999999999999,-0.0404310000000001
525.5999999999999,-0.0429530000000002
525.8,-0.0428460000000001
526.0,-0.0405410000000001
526.2,-0.036677
526.3999999999999,-0.0345590000000002
526.5999999999999,-0.0341160000000002
526.8,-0.038299
527.0,-0.0419260000000001
527.2,-0.0454270000000001
527.3999999999999,-0.0456320000000001
527.5999999999999,-0.045932
527.8,-0.0429180000000002
528.0,-0.0412880000000002
528.2,-0.0383520000000001
528.3999999999999,-0.038178
528.5999999999999,-0.0378
528.8,-0.0378820000000001
529.0,-0.0387670000000002
529.2,-0.0409540000000001
529.3999999999999,-0.0417490000000002
529.5999999999999,-0.0413940000000001
529.8,-0.0415960000000001
530.0,-0.0431920000000001
530.2,-0.0432740000000002
530.3999999999999,-0.0435350000000001
530.5999999999999,-0.0434440000000002
530.8,-0.0447090000000001
531.0,-0.0437210000000001
531.2,-0.0442360000000001
531.3999999999999,-0.045681
531.5999999999999,-0.0476320000000001
531.8,-0.04773
532.0,-0.0467800000000002
532.2,-0.044944
532.3999999999999,-0.0439910000000001
532.5999999999999,-0.0440390000000001
532.8,-0.0452740000000002
533.0,-0.0463420000000001
533.2,-0.0471380000000001
533.3999999999999,-0.0453540000000001
533.5999999999999,-0.0430000000000001
533.8,-0.042639
534.0,-0.0443890000000002
534.2,-0.0458560000000001
534.3999999999999,-0.0476290000000001
534.5999999999999,-0.0496040000000002
534.8,-0.0480410000000002
535.0,-0.0464650000000002
535.2,-0.045619
535.3999999999999,-0.0430800000000002
535.5999999999999,-0.0397610000000001
535.8,-0.0385130000000002
536.0,-0.0377440000000002
536.2,-0.0385560000000002
536.3999999999999,-0.0421430000000002
536.5999999999999,-0.0451000000000001
536.8,-0.0484000000000002
537.0,-0.0511160000000001
537.2,-0.050715
537.3999999999999,-0.0508360000000001
537.5999999999999,-0.0525940000000002
537.8,-0.0533880000000002
538.0,-0.0526810000000002
538.2,-0.0525310000000001
538.3999999999999,-0.052132
538.5999999999999,-0.0483270000000002
538.8,-0.043789
539.0,-0.0406090000000001
539.2,-0.0400910000000001
539.3999999999999,-0.039074
539.5999999999999,-0.0405080000000002
539.8,-0.042391
540.0,-0.0442300000000002
540.2,-0.0433740000000002
540.3999999999999,-0.0422740000000001
540.5999999999999,-0.0443380000000002
540.8,-0.0467080000000001
541.0,-0.0472310000000002
541.2,-0.0474620000000001
541.3999999999999,-0.0482060000000001
541.5999999999999,-0.0439600000000002
541.8,-0.0409420000000002
542.0,-0.0414940000000001
542.2,-0.0436330000000002
542.3999999999999,-0.0436450000000001
542.5999999999999,-0.0454910000000001
542.8,-0.0452940000000001
543.0,-0.043141
543.2,-0.0417180000000001
543.3999999999999,-0.042113
543.5999999999999,-0.044329
543.8,-0.0467490000000001
544.0,-0.049719
544.2,-0.0496500000000001
544.3999999999999,-0.0485660000000001
544.5999999999999,-0.046456
544.8,-0.0442570000000002
545.0,-0.0413890000000001
545.2,-0.0403150000000001
545.3999999999999,-0.04221
545.5999999999999,-0.0435740000000002
545.8,-0.0460300000000002
546.0,-0.0473820000000002
546.2,-0.0502120000000001
546.3999999999999,-0.0503120000000001
546.5999999999999,-0.049457
546.8,-0.049152
547.0,-0.0476950000000002
547.2,-0.0446560000000002
547.3999999999999,-0.0426680000000001
547.5999999999999,-0.0434210000000001
547.8,-0.0406430000000002
548.0,-0.0412700000000001
548.2,-0.0435750000000001
548.3999999999999,-0.0449520000000001
548.5999999999999,-0.0445110000000001
548.8,-0.0480690000000001
549.0,-0.0500910000000001
549.2,-0.0486370000000002
549.3999999999999,-0.0466120000000001
549.5999999999999,-0.0451680000000001
549.8,-0.042337
550.0,-0.040464
550.2,-0.041341
550.3999999999999,-0.0425390000000001
550.5999999999999,-0.0433750000000001
550.8,-0.0445190000000002
551.0,-0.0460110000000002
551.2,-0.0469030000000001
551.3999999999999,-0.0490180000000002
551.5999999999999,-0.0499990000000001
551.8,-0.0487720000000002
552.0,-0.0476410000000002
552.2,-0.0462710000000001
552.3999999999999,-0.0450590000000001
552.5999999999999,-0.045128
552.8,-0.0443410000000001
553.0,-0.0407980000000001
553.2,-0.0375660000000002
553.3999999999999,-0.035036
553.5999999999999,-0.03326
553.8,-0.036518
554.0,-0.03882
554.2,-0.0411700000000001
554.3999999999999,-0.0440450000000001
554.5999999999999,-0.0459580000000001
554.8,-0.0455020000000001
555.0,-0.0450620000000001
555.2,-0.04655
555.3999999999999,-0.046442
555.5999999999999,-0.0480270000000002
555.8,-0.0490600000000001
556.0,-0.0504380000000002
556.2,-0.0504820000000001
556.3999999999999,-0.0501330000000002
556.5999999999999,-0.0477200000000002
556.8,-0.0472350000000001
557.0,-0.049058
557.2,-0.0505140000000001
557.3999999999999,-0.052904
557.5999999999999,-0.0564740000000001
557.8,-0.0559960000000001
558.0,-0.0543200000000001
558.2,-0.0514340000000002
558.3999999999999,-0.0478290000000001
558.5999999999999,-0.0442200000000001
558.8,-0.0444700000000002
559.0,-0.0449130000000002
559.2,-0.045862
559.3999999999999,-0.0468000000000001
559.5999999999999,-0.0484380000000002
559.8,-0.0485740000000001
560.0,-0.0480820000000001
560.2,-0.0489810000000001
560.3999999999999,-0.0493590000000001
560.5999999999999,-0.0480650000000002
560.8,-0.0459200000000001
561.0,-0.0451720000000002
561.2,-0.0431310000000002
561.3999999999999,-0.042237
561.5999999999999,-0.0408250000000001
561.8,-0.037792
562.0,-0.0339060000000002
562.2,-0.0322730000000002
562.3999999999999,-0.0314310000000002
562.5999999999999,-0.0337720000000001
562.8,-0.0372850000000002
563.0,-0.042075
563.2,-0.0454160000000001
563.3999999999999,-0.0482800000000001
563.5999999999999,-0.0478340000000001
563.8,-0.0486360000000001
564.0,-0.0508440000000001
564.2,-0.0534420000000002
564.3999999999999,-0.054418
564.5999999999999,-0.05495
564.8,-0.055201
565.0,-0.0529560000000002
565.2,-0.048985
565.3999999999999,-0.0447910000000002
565.5999999999999,-0.0445170000000001
565.8,-0.0455980000000002
566.0,-0.0460710000000001
566.2,-0.0484730000000002
566.3999999999999,-0.0497170000000002
566.5999999999999,-0.0494050000000001
566.8,-0.0480500000000001
567.0,-0.0479180000000001
567.2,-0.0458570000000002
567.3999999999999,-0.04604
567.5999999999999,-0.04556
567.8,-0.0437530000000001
568.0,-0.0438830000000001
568.2,-0.046299
568.3999999999999,-0.0469970000000001
568.5999999999999,-0.0477310000000001
568.8,-0.05065
569.0,-0.052032
569.2,-0.052175
569.3999999999999,-0.0544170000000001
569.5999999999999,-0.0550350000000001
569.8,-0.054928
570.0,-0.0569410000000001
570.2,-0.0588810000000001
570.3999999999999,-0.0597200000000002
570.5999999999999,-0.0605580000000001
570.8,-0.0612700000000001
571.0,-0.0592690000000002
571.2,-0.0591260000000002
571.3999999999999,-0.0583360000000001
571.5999999999999,-0.0572420000000002
571.8,-0.0559830000000001
572.0,-0.05563
572.2,-0.0537860000000001
572.3999999999999,-0.0506330000000001
572.5999999999999,-0.0489600000000001
572.8,-0.0476970000000001
573.0,-0.0461310000000001
573.2,-0.0426380000000001
573.3999999999999,-0.0413530000000001
573.5999999999999,-0.0411230000000002
573.8,-0.0406350000000002
574.0,-0.0397640000000001
574.1999999999998,-0.0413800000000001
574.3999999999999,-0.0420790000000002
574.5999999999999,-0.0428710000000001
574.8,-0.04363
575.0,-0.0451320000000001
575.1999999999998,-0.0441570000000002
575.3999999999999,-0.044588
575.5999999999999,-0.0443550000000001
575.8,-0.0445300000000001
576.0,-0.045079
576.1999999999998,-0.0472750000000001
576.3999999999999,-0.0468980000000001
576.5999999999999,-0.0451220000000001
576.8,-0.0444320000000002
577.0,-0.041044
577.1999999999998,-0.037171
577.3999999999999,-0.0375360000000002
577.5999999999999,-0.0410370000000002
577.8,-0.0431260000000002
578.0,-0.0459640000000001
578.1999999999998,-0.0481920000000002
578.3999999999999,-0.0492070000000002
578.5999999999999,-0.048545
578.8,-0.0473080000000001
579.0,-0.0469910000000002
579.1999999999998,-0.0461890000000002
579.3999999999999,-0.04485
579.5999999999999,-0.0444280000000001
579.8,-0.0468020000000002
580.0,-0.047986
580.1999999999998,-0.048766
580.3999999999999,-0.048958
580.5999999999999,-0.0477450000000001
580.8,-0.0417
581.0,-0.0383820000000001
581.1999999999998,-0.0375970000000001
581.3999999999999,-0.0380690000000001
581.5999999999999,-0.038801
581.8,-0.04275
582.0,-0.0434020000000001
582.1999999999998,-0.0444730000000002
582.3999999999999,-0.0454890000000001
582.5999999999999,-0.0453390000000002
582.8,-0.0434660000000002
583.0,-0.0431650000000001
583.1999999999998,-0.0422970000000002
583.3999999999999,-0.0422420000000001
583.5999999999999,-0.0428380000000001
583.8,-0.0441280000000001
584.0,-0.0472220000000001
584.1999999999998,-0.0478140000000002
584.3999999999999,-0.0485750000000002
584.5999999999999,-0.048523
584.8,-0.0488570000000001
585.0,-0.047425
585.1999999999998,-0.0479950000000002
585.3999999999999,-0.0461330000000002
585.5999999999999,-0.0452530000000002
585.8,-0.0444120000000001
586.0,-0.0450030000000001
586.1999999999998,-0.047198
586.3999999999999,-0.0499450000000001
586.5999999999999,-0.0527920000000001
586.8,-0.056645
587.0,-0.057754
587.1999999999998,-0.057209
587.3999999999999,-0.0569780000000001
587.5999999999999,-0.0549400000000002
587.8,-0.0521370000000001
588.0,-0.0498360000000002
588.1999999999998,-0.0474010000000002
588.3999999999999,-0.0460470000000001
588.5999999999999,-0.048356
588.8,-0.051395
589.0,-0.0539710000000002
589.1999999999998,-0.056874
589.3999999999999,-0.0572800000000002
589.5999999999999,-0.0566820000000001
589.8,-0.053368
590.0,-0.0529700000000001
590.1999999999998,-0.0513810000000001
590.3999999999999,-0.0506410000000001
590.5999999999999,-0.0487200000000001
590.8,-0.0483340000000001
591.0,-0.047708
591.1999999999998,-0.0486350000000002
591.3999999999999,-0.0492830000000001
591.5999999999999,-0.0498670000000001
591.8,-0.0525170000000001
592.0,-0.052661
592.1999999999998,-0.0519180000000001
592.3999999999999,-0.0515830000000001
592.5999999999999,-0.0507630000000001
592.8,-0.049206
593.0,-0.0481300000000002
593.1999999999998,-0.0458
593.3999999999999,-0.0447330000000001
593.5999999999999,-0.0465280000000001
593.8,-0.0484920000000002
594.0,-0.0497850000000001
594.1999999999998,-0.0525310000000001
594.3999999999999,-0.0539060000000002
594.5999999999999,-0.05461
594.8,-0.0552730000000001
595.0,-0.0552080000000001
595.1999999999998,-0.0565310000000001
595.3999999999999,-0.05746
595.5999999999999,-0.0571680000000001
595.8,-0.0530770000000002
596.0,-0.0525240000000002
596.1999999999998,-0.0501850000000001
596.3999999999999,-0.0485470000000001
596.5999999999999,-0.047859
596.8,-0.0501230000000001
597.0,-0.0502840000000002
597.1999999999998,-0.0505080000000002
597.3999999999999,-0.0504660000000001
597.5999999999999,-0.0503070000000001
597.8,-0.0506810000000002
598.0,-0.0516850000000002
598.1999999999998,-0.053093
598.3999999999999,-0.0541360000000001
598.5999999999999,-0.055495
598.8,-0.0549290000000002
599.0,-0.0525030000000001
599.1999999999998,-0.0501010000000001
599.3999999999999,-0.04712
